AX,AY,AZ,EX,EY,EZ
4.629,15.0,1.5599999999999996,-0.02301922432326707,0.11314587574310642,0.0845785152839118
0.6289999999999997,15.0,1.5599999999999996,0.0020847065557036415,-0.2380270358889519,0.15994554686697138
-3.3710000000000004,15.0,1.5599999999999996,-0.13877089706570006,-0.05675657421713998,-0.01698996216728671
-7.3709999999999996,15.0,1.5599999999999996,-0.06344542650390805,-0.12194296776839308,-0.09338489195570288
-11.371,15.0,1.5599999999999996,0.1272013888491491,-0.3097391508745828,-0.16726917562022436
-15.371000000000002,15.0,1.5599999999999996,0.27527055893280805,-0.38804050463941697,-0.1754242348764562
-19.371,15.0,1.5599999999999996,0.009916220244812757,-0.10804843479105264,0.6240159397034234
-23.371000000000002,15.0,1.5599999999999996,0.0914851380065973,-0.12571594316549417,0.07124786274341766
-27.371000000000002,15.0,1.5599999999999996,-0.37901331273308414,0.08648956349445736,0.4100045734045085
-27.371000000000002,15.0,-2.4400000000000004,-0.2876931394707516,-0.06813031488103194,0.18620406470298556
-23.371000000000002,15.0,-2.4400000000000004,-0.660832496435293,0.20883765233957463,0.9228609952963374
-19.371,15.0,-2.4400000000000004,-0.4385875121256627,0.17636596711327057,0.28910733976977576
-15.371000000000002,15.0,-2.4400000000000004,-0.36600084116104326,0.06881745327343425,0.057084459554634925
-11.371,15.0,-2.4400000000000004,-0.1314566890479152,0.19048591501151513,-0.6192118239088357
-7.3709999999999996,15.0,-2.4400000000000004,0.04923704214390978,0.16726195563378787,-0.42008337099339876
-3.3710000000000004,15.0,-2.4400000000000004,0.1435815214818184,0.12927100318256002,-0.28717180040076506
0.6289999999999997,15.0,-2.4400000000000004,0.32301116437995214,-0.37402456338216095,-0.12904201352327838
4.629,15.0,-2.4400000000000004,0.05720025390367721,-0.10366420065262838,0.01595116262577967
8.629000000000001,15.0,-2.4400000000000004,-0.0875668940928831,-0.0032597925400890126,-0.03213759490024448
12.629000000000001,15.0,-2.4400000000000004,-0.2545314811796942,0.05563194618108114,0.04199713004906791
12.629000000000001,15.0,-6.4399999999999995,0.15462701889389086,0.11433457579431983,0.10135984380102159
8.629000000000001,15.0,-6.4399999999999995,0.018342355968810342,0.056752296504627986,-0.057054849922191786
4.629,15.0,-6.4399999999999995,-0.0067604585317199845,-0.18574827611290146,0.013260851648966288
0.6289999999999997,15.0,-6.4399999999999995,-0.1383752288964868,-0.4704933803755501,0.2245457581057625
-3.3710000000000004,15.0,-6.4399999999999995,-0.06265648506390692,-0.3526942135978234,0.27958012273151533
-7.3709999999999996,15.0,-6.4399999999999995,0.39787394290514144,-0.10700192346186077,-0.08503974134886072
-11.371,15.0,-6.4399999999999995,0.10815360857931444,0.004095472563345193,-0.3862104964529489
-15.371000000000002,15.0,-6.4399999999999995,-0.4414035226800922,0.28796185516289374,0.1294743780156815
-19.371,15.0,-6.4399999999999995,0.10392754733126452,0.20257989347418626,-0.33587470963004906
-23.371000000000002,15.0,-6.4399999999999995,-0.3134101922090182,0.02058002594758912,0.431314207990971
-27.371000000000002,15.0,-6.4399999999999995,-0.316343862151941,-0.06188279253610263,0.1901685624358329
-27.371000000000002,15.0,-10.440000000000001,-0.7985836777101574,0.17566936245465847,-0.2509691308020062
-23.371000000000002,15.0,-10.440000000000001,0.17763080855416336,0.10897653081164138,-0.6417436801441162
-19.371,15.0,-10.440000000000001,0.24018772453052728,-0.49793028532371664,-1.0530369907025827
-15.371000000000002,15.0,-10.440000000000001,-0.04121722140477957,-0.004514396049701275,0.21380966335525498
-11.371,15.0,-10.440000000000001,-0.7009405343084252,0.11386645216956703,0.6788939407845779
-7.3709999999999996,15.0,-10.440000000000001,0.61178783144476,-0.38423628773291696,0.2119984515749629
-3.3710000000000004,15.0,-10.440000000000001,0.0599990350067553,-0.07994421405588814,0.3200928434487882
0.6289999999999997,15.0,-10.440000000000001,-0.002872255406011215,0.17247477723610904,0.21098472698869442
8.629000000000001,15.0,-10.440000000000001,0.18925925749054273,0.22199368400301622,0.0017862955823483295
12.629000000000001,15.0,-10.440000000000001,0.0253348834846151,-0.164676071790279,0.010116181749836306
12.629000000000001,15.0,-14.440000000000003,0.09822948693372496,-0.4889112365884518,0.2508089783477052
8.629000000000001,15.0,-14.440000000000003,-0.107561312444171,-0.061977765827520015,-0.24833106823385354
4.629,15.0,-14.440000000000003,0.4495888535733416,0.24516168474759403,-1.0724434864440497
0.6289999999999997,15.0,-14.440000000000003,-0.8024599589857684,0.4647310788594705,0.062328254206109324
-3.3710000000000004,15.0,-14.440000000000003,-0.5256032500566971,0.03610905755309923,0.4110084417760729
-7.3709999999999996,15.0,-14.440000000000003,0.4900229115244431,-1.532898675202507,0.47984256331304875
-11.371,15.0,-14.440000000000003,0.34159258948000815,-0.23715856490659493,-0.03801853254163656
-15.371000000000002,15.0,-14.440000000000003,0.37882683344122314,0.14013899352464942,-0.047182544444673846
-19.371,15.0,-14.440000000000003,0.5757410388856993,0.1380187238593178,-0.21157388412454958
-23.371000000000002,15.0,-14.440000000000003,-0.17535329796652954,0.5448040716726416,-0.7705655934980238
-27.371000000000002,15.0,-14.440000000000003,0.4859298483644581,-0.298047394314524,-0.35495186799135714
-23.371000000000002,15.0,-18.44,0.24096934783074397,0.16944922011816466,-0.1741145176614889
-19.371,15.0,-18.44,0.43334409757295467,0.4149145125497078,-0.24113423265356704
-15.371000000000002,15.0,-18.44,-0.18021590348149263,0.18997869273906787,0.34155911218892165
-11.371,15.0,-18.44,0.45669340451715557,-0.0016471868203832285,-0.00977530079925848
-7.3709999999999996,15.0,-18.44,0.29943906237029083,-0.8316816902420004,0.32361390593271255
-3.3710000000000004,15.0,-18.44,0.05706867757233197,-1.3486773052603236,0.43415611422862876
0.6289999999999997,15.0,-18.44,-0.628705552179018,0.7335949043724838,-0.17666206947533625
4.629,15.0,5.56,-0.017212445629724918,0.05896947360645444,-0.07874729008008619
8.629000000000001,15.0,5.56,-0.008191646058927637,0.2681484224359265,0.4188957504090582
0.6289999999999997,15.0,5.56,-0.052159237952111026,-0.21792070827311716,-0.15180300663059226
-3.3710000000000004,15.0,5.56,0.054599917245239105,-0.13588958526933037,0.01075524453731172
-7.3709999999999996,15.0,5.56,0.048635382025211116,-0.23079686790984377,-0.034724903878365077
-11.371,15.0,5.56,-0.17153498106596,-0.04910921614951491,0.5041704531743838
-15.371000000000002,15.0,5.56,0.014028815909536418,-0.18564373816654378,0.20742734798154666
-19.371,15.0,5.56,0.1106998143999588,-0.07302063479725507,0.47381342220606526
-23.371000000000002,15.0,5.56,-0.11370413179362382,0.11351737883028845,-0.2646807631495815
-27.371000000000002,15.0,5.56,-0.13171310977959094,0.13041414301584175,-0.09643020556890508
-27.371000000000002,15.0,9.559999999999999,-0.13264461223735924,0.15722546037457708,1.108637721858769
-23.371000000000002,15.0,9.559999999999999,-0.11165398783972158,-0.04041104110898419,-0.19993850051769138
-19.371,15.0,9.559999999999999,-0.10290656208853943,-0.07021167793516692,-0.3288920584691706
-15.371000000000002,15.0,9.559999999999999,-0.02986001629076418,-0.13742733702412357,-0.44251038068377424
-11.371,15.0,9.559999999999999,0.0920945705929127,-0.22958954455430391,0.49000568791257093
-7.3709999999999996,15.0,9.559999999999999,0.04912698601023113,-0.2868952779848333,-0.01088879297138981
-3.3710000000000004,15.0,9.559999999999999,-0.09471654184677464,0.0650904463550539,0.29252614304180957
0.6289999999999997,15.0,9.559999999999999,-0.17760741433213434,0.02828322600107458,0.10692802926360045
0.6289999999999997,15.0,13.56,0.0447296351393664,-0.22618532906247824,0.1844859139263605
-3.3710000000000004,15.0,13.56,0.06178968265378865,0.37027718935619125,-0.11225527824094417
-7.3709999999999996,15.0,13.56,-0.09090870583906008,0.135421565647445,-0.11565076510746397
-11.371,15.0,13.56,-0.03310849624872658,-0.03900313701257485,-0.28969487790495296
-15.371000000000002,15.0,13.56,0.04724763735658721,0.010728765386758266,-0.08922076562223741
-19.371,15.0,13.56,0.12399015045887196,-0.04676550371839894,0.19558326077557253
-23.371000000000002,15.0,13.56,0.0274164282049405,-0.15397331325055497,-0.4234871555990838
-27.371000000000002,15.0,13.56,0.12375504617926913,-0.0996802040462541,-0.1794079487295347
-27.371000000000002,15.0,17.56,0.17917030424881575,-0.0836299813885083,0.006960591582906572
-23.371000000000002,15.0,17.56,0.04204972413979213,-0.2212353546692164,-0.1478018365466141
-19.371,15.0,17.56,-0.06403919465936825,-0.17391590665637724,-0.4424542951404306
-15.371000000000002,15.0,17.56,-0.23412415797740005,-0.02525142091175936,-0.41360176503432017
-11.371,15.0,17.56,-0.05234764812709625,-0.04667082497449293,-0.45398214099404144
-7.3709999999999996,15.0,17.56,-0.049001603436474306,0.1596822688265137,0.002774976208994029
-3.3710000000000004,15.0,17.56,-0.019655105263442774,0.22958931516172676,0.34325673013865104
0.6289999999999997,15.0,17.56,-0.022408580510280274,-0.4705199631317297,0.1900675204148522
4.629,15.0,17.56,0.07672243046968029,-0.4977974148210801,-0.034118972191891916
8.629000000000001,15.0,17.56,0.03289519526716439,-0.15029431581942143,-0.18501102395803437
-7.3709999999999996,15.0,21.560000000000002,-0.05569433487707942,0.0901393688112595,0.2052928641500515
-11.371,15.0,21.560000000000002,0.004089952899419269,-0.049590730598109145,-0.013111777817263748
-15.371000000000002,15.0,21.560000000000002,-0.003353065101135977,-0.12807194259121246,-0.3103399032767559
-19.371,15.0,21.560000000000002,0.04030904984362871,-0.0824566641939084,-0.23930118363933578
-23.371000000000002,15.0,21.560000000000002,0.11122343581857486,-0.12492079236824383,-0.003393942032826891
-27.371000000000002,15.0,21.560000000000002,0.12976403276357407,-0.176205507187302,0.3859739979384366
-19.371,15.0,25.56,-0.1798200539913808,0.0008331081568641041,0.1808508155431071
-15.371000000000002,15.0,25.56,-0.20276911251866647,-0.13402431511883306,0.029194046598754464
-11.371,15.0,25.56,0.2501550642674266,0.022090000689764522,0.4148720015091617
-7.3709999999999996,15.0,25.56,0.16723435303847844,0.09510050236529177,0.380273111228871
4.629,20.0,1.5599999999999996,0.14575674739456224,0.11687470079836948,-0.008438080266781611
0.6289999999999997,20.0,1.5599999999999996,0.17883435198382674,-0.017011953848611316,-0.0411785603496459
-3.3710000000000004,20.0,1.5599999999999996,-0.01622352160893098,-0.06813430524318376,0.11084211006176237
-7.3709999999999996,20.0,1.5599999999999996,0.06010207679439661,-0.016092545715196138,0.21083846555102065
-11.371,20.0,1.5599999999999996,-0.0029177136849967145,-0.01806264703847482,0.06122255504492358
-15.371000000000002,20.0,1.5599999999999996,0.1754708794379306,-0.09945238294987724,0.04326129479027829
-19.371,20.0,1.5599999999999996,0.19822182594641247,-0.010691808244059353,0.3322204781163268
-23.371000000000002,20.0,1.5599999999999996,0.4311411969689427,-0.0382451243202353,-0.5780896639241973
-27.371000000000002,20.0,1.5599999999999996,0.22461790695552097,0.08413268313066657,0.016711762023408072
-27.371000000000002,20.0,-2.4400000000000004,0.04041095538823147,0.12169135458513503,0.06369612117533285
-23.371000000000002,20.0,-2.4400000000000004,0.1345429114907537,-0.007599734133467706,0.16540251113902338
-19.371,20.0,-2.4400000000000004,0.1367897029922932,0.06378788440086214,0.09109653480422475
-15.371000000000002,20.0,-2.4400000000000004,0.37445436084140027,-0.0057734317138513624,-0.4822466731990341
-11.371,20.0,-2.4400000000000004,0.3521547923026225,-0.00212978174052858,-0.33541426229784094
-7.3709999999999996,20.0,-2.4400000000000004,0.32956164024639245,0.07270697670235249,-0.16090318802833847
-3.3710000000000004,20.0,-2.4400000000000004,0.002707502824740582,0.09397343920448664,0.152479608065631
0.6289999999999997,20.0,-2.4400000000000004,-0.01633254812333229,0.19093893363925918,-0.06412424179219889
4.629,20.0,-2.4400000000000004,0.1361158681257701,0.3064025558316308,-0.12743861310596794
8.629000000000001,20.0,-6.4399999999999995,-0.3393827138464284,-0.09601153128971918,-0.33017358802411023
4.629,20.0,-6.4399999999999995,0.14760735211244402,0.03139033612657993,-0.06498510345367692
0.6289999999999997,20.0,-6.4399999999999995,0.18394423559845163,0.11910848712962663,0.10855278930356482
-3.3710000000000004,20.0,-6.4399999999999995,0.3971058204303393,0.007413477100853827,0.12445381290489832
-7.3709999999999996,20.0,-6.4399999999999995,0.41256760007465365,0.10903212618055824,-0.013104764147844894
-11.371,20.0,-6.4399999999999995,-0.20733250030017802,0.35487085899742477,-0.03612593957458832
-15.371000000000002,20.0,-6.4399999999999995,-0.14071902589707364,0.517154028297237,-0.13296361729205342
-19.371,20.0,-6.4399999999999995,-0.019158848471026446,0.4918058336283143,-0.21234339116362466
-23.371000000000002,20.0,-6.4399999999999995,0.33673791426462873,0.11069288260303067,-0.5938120717278006
-27.371000000000002,20.0,-6.4399999999999995,0.3875788880350395,0.14183717172390753,-0.5309464361248378
-27.371000000000002,20.0,-10.440000000000001,0.5887312559691715,-0.24179845725270932,-0.22115646878270445
-23.371000000000002,20.0,-10.440000000000001,0.20955871992072161,0.2626409272580399,-0.37525733023433816
-15.371000000000002,20.0,-10.440000000000001,-0.2965812312556937,0.4298715611837034,-0.10648633092355253
-11.371,20.0,-10.440000000000001,0.4406681918208366,0.2568253695182682,-0.3832731178796983
-7.3709999999999996,20.0,-10.440000000000001,0.4104132167699309,0.1579044589874068,-0.14353873849426158
-3.3710000000000004,20.0,-10.440000000000001,0.5534692561969465,-0.11662514686617276,0.21499316070963392
0.6289999999999997,20.0,-10.440000000000001,0.509450963431915,-0.013926526961979824,0.16398368390870555
0.6289999999999997,20.0,-14.440000000000003,-0.336727508495982,0.026130861264520022,-0.09505049776696584
-3.3710000000000004,20.0,-14.440000000000003,-0.43940638306198126,-0.1919652166567698,0.2388753906500618
-7.3709999999999996,20.0,-14.440000000000003,-0.22169104252081628,-0.30746854113359867,0.3963994950164751
-11.371,20.0,-14.440000000000003,-0.28503991260172,0.17402050500120447,0.05649419040605064
-15.371000000000002,20.0,-14.440000000000003,-0.5306394882671622,0.1316854425649161,0.1982526660700451
-19.371,20.0,-14.440000000000003,-0.18074623224323128,0.08318620493202866,0.16762932317244683
-23.371000000000002,20.0,-14.440000000000003,-0.07043044528048936,-0.21497531870120212,0.2857604605623676
-27.371000000000002,20.0,-14.440000000000003,0.3721939541578345,-0.282395533377916,0.11230259726699166
-27.371000000000002,20.0,-18.44,0.7179673275659992,-0.37103053751781634,-0.06842032099448336
-23.371000000000002,20.0,-18.44,-0.5740037017947452,-0.23252765939534847,0.6072544611976649
-19.371,20.0,-18.44,0.7151540687550834,-0.4543137656622953,0.037907471374371005
-15.371000000000002,20.0,-18.44,-0.6055210890492463,-0.23587852463500814,0.3777310783472487
-11.371,20.0,-18.44,0.19818497151503356,0.16706237840106442,-0.23735937048408595
-7.3709999999999996,20.0,-18.44,-0.7257323352824058,0.10010789640305107,0.20461172582992293
-3.3710000000000004,20.0,-18.44,-0.03194192302982263,0.35067548692700456,-0.10383736256650011
0.6289999999999997,20.0,-18.44,-0.13939404418507328,0.37644423434268215,-0.31699913698040594
4.629,20.0,-18.44,0.1622303530816518,0.36276968554832534,-0.42934774453410873
8.629000000000001,20.0,-18.44,0.7659807864290422,-0.050170483978273506,-0.007981494474268436
12.629000000000001,20.0,-18.44,0.09072696376126038,-0.16851603693718575,0.2539462755659694
4.629,20.0,5.56,-0.05631361338595299,0.20788233068958217,-0.2416887150475555
0.6289999999999997,20.0,5.56,0.055948277865486284,-0.058525278588883456,-0.06001669904649731
-3.3710000000000004,20.0,5.56,-0.011901737490539743,0.024790303627719723,-0.10236954186559483
-7.3709999999999996,20.0,5.56,0.03592122863736169,0.04688660205088013,-0.03854424960490488
-11.371,20.0,5.56,0.04012818331178836,0.05721648375296151,0.12257156083664358
-15.371000000000002,20.0,5.56,0.054049306074863135,-0.0411426604307541,0.31862265341215046
-19.371,20.0,5.56,0.21908021521488685,-0.07364692800803374,0.28214910684691147
-23.371000000000002,20.0,5.56,0.16299171733207274,0.12206377801405044,0.38594078792942366
-27.371000000000002,20.0,5.56,0.259245384166501,0.1485520302726917,0.08871321006685279
-27.371000000000002,20.0,9.559999999999999,-0.06051042333637402,0.33762725336453914,0.07204532726498916
-23.371000000000002,20.0,9.559999999999999,-0.04376402828565329,0.25179672021414246,0.1656362140273128
-19.371,20.0,9.559999999999999,0.01697568817394801,0.001895764639034403,-0.5488623990017656
-15.371000000000002,20.0,9.559999999999999,-0.0056937194502476585,0.18400854487084228,0.27064559675485034
-11.371,20.0,9.559999999999999,0.10861448443370003,0.00018972974865083536,0.2827463754612479
-7.3709999999999996,20.0,9.559999999999999,0.04062750396407466,0.12425112351032719,0.1850793817255121
-3.3710000000000004,20.0,9.559999999999999,0.027205389289330917,0.16066683508205448,-0.055389763027124256
0.6289999999999997,20.0,9.559999999999999,0.09989446210354053,0.2609193352264949,-0.15849251213274698
0.6289999999999997,20.0,13.56,0.3729909883083596,0.26495589414306797,-0.18421898403078868
-3.3710000000000004,20.0,13.56,0.041983771302628314,0.22891749876422784,-0.05644130013282844
-7.3709999999999996,20.0,13.56,0.22479862083850943,0.3173233677431053,0.3437644748578689
-11.371,20.0,13.56,0.10079407168146204,-0.04248623889862024,0.0536337235650719
-15.371000000000002,20.0,13.56,0.19620118736707326,-0.016002272725151867,0.19909120205877373
-19.371,20.0,13.56,0.11009279671103933,-0.06200314744886637,-0.5511636213515109
-23.371000000000002,20.0,13.56,0.15375588823748343,0.1467410334667768,0.13607994297224757
-27.371000000000002,20.0,13.56,0.1077004576988394,0.25912219812926074,0.031945336812691516
-27.371000000000002,20.0,17.56,0.11678867383238534,0.1788584920499714,-0.5161865963090637
-23.371000000000002,20.0,17.56,0.16497734482853188,-0.049521820296066776,-0.3297735796918763
-19.371,20.0,17.56,0.35820637856570914,0.03387562734901983,0.029583290249819705
-15.371000000000002,20.0,17.56,0.3401040834195318,-0.015698578448941625,-0.023223443854973602
-11.371,20.0,17.56,0.33573105373792267,0.13827447083114008,0.10892893986319957
-7.3709999999999996,20.0,17.56,0.15212184018370267,0.3232411311458877,0.22872839724879107
-3.3710000000000004,20.0,17.56,0.04371619454635739,0.05385504594940804,0.019763674096971717
-11.371,20.0,21.560000000000002,-0.1406564005746569,0.12942486282751797,-0.14897934589181844
-15.371000000000002,20.0,21.560000000000002,0.24114937993733598,0.02308105183281839,0.021555854875519864
-19.371,20.0,21.560000000000002,0.4477065866960922,0.08005303410777154,0.3055340592359221
-23.371000000000002,20.0,21.560000000000002,0.09019528704122814,-0.07884611398867591,-0.4580389271217025
-27.371000000000002,20.0,21.560000000000002,0.20744066881859813,0.13003683815491218,-0.19280518480467995
-27.371000000000002,20.0,25.56,-0.09572364755426332,0.37630501265636385,0.14559822151371804
-23.371000000000002,20.0,25.56,0.1428503084393684,0.16026287144835782,0.17033768155625129
-19.371,20.0,25.56,0.4016373443966409,0.3318615226434646,0.49962834981838455
-15.371000000000002,20.0,25.56,0.1397184482217123,0.14271100448645657,0.15693248855813413
-11.371,20.0,25.56,-0.20317579099115857,0.2515835977402292,-0.042583888300082307
-7.3709999999999996,20.0,25.56,0.2438127405226087,0.3783162797725864,0.3181353990982766
0.6289999999999997,25.0,1.5599999999999996,-0.2197089665598756,-0.18593209707875036,0.007124486233117677
-3.3710000000000004,25.0,1.5599999999999996,-0.2366198428222055,-0.10486577794953655,-0.08319962002339004
-7.3709999999999996,25.0,1.5599999999999996,0.009321326107097905,-0.13099058545748554,-0.10595650584441646
-11.371,25.0,1.5599999999999996,-0.05272883815219398,-0.1374716643241236,-0.06131598267969801
-15.371000000000002,25.0,1.5599999999999996,-0.3016247862659277,-0.0500508361807539,0.04817894065307082
-19.371,25.0,1.5599999999999996,-0.12695376639986766,-0.11385317410337326,0.37097378264103614
-23.371000000000002,25.0,1.5599999999999996,0.000805071256682055,-0.1402468050874628,0.063854499372272
-27.371000000000002,25.0,1.5599999999999996,0.3064108445496594,-0.18370648083985142,-0.7251194667748164
-27.371000000000002,25.0,-2.4400000000000004,0.043530516140516395,-0.1872597551554389,0.4691618326727265
-23.371000000000002,25.0,-2.4400000000000004,0.15060348335687035,-0.18877792483986133,-0.11387594640464294
-19.371,25.0,-2.4400000000000004,0.19132178299833824,-0.16679879368167172,-0.378952665781003
-15.371000000000002,25.0,-2.4400000000000004,-0.13797354475841572,-0.050347612433948585,-0.045057365314596365
-11.371,25.0,-2.4400000000000004,-0.2335013497591465,-0.17296699017184114,0.12382084622712952
-7.3709999999999996,25.0,-2.4400000000000004,-0.1793303985436867,-0.1036022666862979,0.15640904459133242
-3.3710000000000004,25.0,-2.4400000000000004,-0.2705634870880727,-0.03889232518081709,0.058134028756623435
0.6289999999999997,25.0,-2.4400000000000004,-0.30201950434745606,0.015752172846755785,0.02346311335277851
4.629,25.0,-6.4399999999999995,-0.1626029959209272,-0.04007406950641279,-0.004825394286028795
0.6289999999999997,25.0,-6.4399999999999995,-0.1349850941305214,0.14943719464614036,0.00947811776962626
-3.3710000000000004,25.0,-6.4399999999999995,-0.02980268276521897,-0.013383188151333547,-0.03179674293106727
-7.3709999999999996,25.0,-6.4399999999999995,-0.2860600062947527,-0.05128416058445273,0.14518982709993689
-11.371,25.0,-6.4399999999999995,0.1930356807202549,-0.11239867091183964,-0.22753044093116737
-15.371000000000002,25.0,-6.4399999999999995,-0.1009860255153483,0.045151067785831334,-0.00029481130602582173
-19.371,25.0,-6.4399999999999995,-0.3513950387413006,0.021984538277136645,0.2928725630458512
-23.371000000000002,25.0,-6.4399999999999995,-0.2200250230434797,0.007344734139408393,0.0916426843855539
-27.371000000000002,25.0,-6.4399999999999995,-0.2587327124156602,-0.02039603892882713,0.36379786911172607
-27.371000000000002,25.0,-10.440000000000001,-0.2611512665377014,0.2663943718913264,-0.20934083755738409
-23.371000000000002,25.0,-10.440000000000001,0.06566952209813293,0.024102189398439444,-0.5327265488643124
-15.371000000000002,25.0,-10.440000000000001,-0.04625119169435199,0.20887093484867336,-0.4146425506923762
-11.371,25.0,-10.440000000000001,0.0546419018980282,0.06805686527323607,-0.26166475356214913
-7.3709999999999996,25.0,-10.440000000000001,-0.17819201940707796,-0.08143484663082345,0.03284837415238606
-3.3710000000000004,25.0,-10.440000000000001,0.13745966109636049,-0.17838218524838245,0.03891202449646525
0.6289999999999997,25.0,-10.440000000000001,0.11934555832394111,-0.024475094523201957,0.31146079721726116
4.629,25.0,-10.440000000000001,-0.04901985600939997,-0.2129744697909497,0.16362474749210265
8.629000000000001,25.0,-10.440000000000001,-0.0024778087745661037,-0.14924484277774042,0.19387155272589662
12.629000000000001,25.0,-14.440000000000003,0.08596508165839983,0.028003902011858317,-0.13957878042294147
8.629000000000001,25.0,-14.440000000000003,-0.010476228641269347,-0.16809337608945096,0.27082462582487254
4.629,25.0,-14.440000000000003,0.13567651928822722,-0.26128744961889105,0.31836221723017255
0.6289999999999997,25.0,-14.440000000000003,0.19824931935815693,0.01495454145763464,0.09409943968937129
-3.3710000000000004,25.0,-14.440000000000003,0.20043659076603854,-0.03964333916284257,0.05343705902102758
-7.3709999999999996,25.0,-14.440000000000003,0.015414128422525097,0.08654098138538291,-0.011513407731755798
-11.371,25.0,-14.440000000000003,0.14843964512399332,-0.06707795052470211,-0.027602686722213998
-15.371000000000002,25.0,-14.440000000000003,-0.6751487281442675,0.08551984019766756,0.26627851137691616
-19.371,25.0,-14.440000000000003,-0.33248555806929814,0.14542339131845827,0.0333852669736151
-23.371000000000002,25.0,-14.440000000000003,-0.9526462878198028,0.14111430553150894,0.5009070177243335
-27.371000000000002,25.0,-14.440000000000003,-0.7690183058064404,-0.03965483658022184,0.9332861701531692
-27.371000000000002,25.0,-18.44,0.1969868740645364,-0.4377662598193277,0.023827785514923816
-23.371000000000002,25.0,-18.44,-0.2871062737855756,-0.19787037055236656,0.14369513756903873
-19.371,25.0,-18.44,-0.20064310505284733,0.12141621452292362,-0.23232845460710583
-15.371000000000002,25.0,-18.44,-0.2274626309287625,0.03320456492956203,-0.20151322615668543
-11.371,25.0,-18.44,-0.10801522227867344,-0.006075217105039332,-0.18896216050189873
-7.3709999999999996,25.0,-18.44,-0.04361646299856081,0.03694705700177936,-0.17087794853143934
-3.3710000000000004,25.0,-18.44,0.055768043135255574,0.19010326729416993,-0.14411102303160672
0.6289999999999997,25.0,-18.44,-0.028379661811883672,0.1463851337189126,-0.03490930047637675
4.629,25.0,-18.44,-0.0718995117248853,-0.01993896150496166,0.08319474005898386
8.629000000000001,25.0,-18.44,0.01363418892127849,0.033288020614308245,0.18088272910700698
12.629000000000001,25.0,-18.44,-0.238950445602161,0.2111171282322133,-0.021643360042528093
16.628999999999998,25.0,-18.44,0.011784814837337287,0.13177383843487323,-0.19818249712879044
0.6289999999999997,25.0,5.56,-0.08602081017964752,-0.11619404808481115,-0.0914010854839789
-3.3710000000000004,25.0,5.56,-0.06125836073553326,-0.1422087870655231,-0.120430508348561
-7.3709999999999996,25.0,5.56,-0.14444576086424937,-0.08237532177181595,0.15247950079195632
-11.371,25.0,5.56,-0.1508691467953377,-0.009343770747510804,0.2911918759109136
-15.371000000000002,25.0,5.56,-0.11866413905367301,-0.08513418980307663,0.2784060067031871
-19.371,25.0,5.56,-0.08991462275771411,-0.09376149659873212,0.2040815264843565
-23.371000000000002,25.0,5.56,0.16303408784815732,-0.23954509157610993,-0.3185958358331048
-27.371000000000002,25.0,5.56,0.08775596275594766,-0.058578174232071234,0.06703603808006914
-27.371000000000002,25.0,9.559999999999999,-0.020189202340353818,0.15575885446017512,0.04802089620142627
-23.371000000000002,25.0,9.559999999999999,-0.11180558762233783,-0.03876724479221494,-0.10945777738080517
-19.371,25.0,9.559999999999999,-0.23679260505127808,0.01035008469204568,0.12082517480844837
-15.371000000000002,25.0,9.559999999999999,-0.31759413497398914,-0.0036637887825929916,-0.20428205377701555
-11.371,25.0,9.559999999999999,-0.14821925886444598,0.03285048829564097,0.2904474081553622
-7.3709999999999996,25.0,9.559999999999999,-0.23293211147606685,-0.04757591670287997,0.03742650874174261
-3.3710000000000004,25.0,9.559999999999999,-0.1498550933907397,-0.08177999939829039,-0.11802544656216649
0.6289999999999997,25.0,9.559999999999999,-0.11946812206221832,-0.014969975420597859,-0.18110971063925382
0.6289999999999997,25.0,13.56,-0.09383255304869845,0.10364898054868732,-0.08452620275898048
-3.3710000000000004,25.0,13.56,-0.1525751925835997,-0.005152503642202877,-0.1409418564775472
-7.3709999999999996,25.0,13.56,-0.060424346571175125,-0.002578904617023259,0.22893653295855965
-11.371,25.0,13.56,-0.26988978217355464,-0.02536832987695692,-0.06552248669938754
-15.371000000000002,25.0,13.56,-0.34468595213037745,-0.17029541351163413,-0.18412875006350027
-19.371,25.0,13.56,-0.13539608219635124,0.023047237739673432,0.3047170105011654
-23.371000000000002,25.0,13.56,-0.08471089593261594,-0.11151224457107145,0.12672712029830335
-27.371000000000002,25.0,13.56,-0.08483789685628795,0.0729196297700796,-0.17879658224888018
-27.371000000000002,25.0,17.56,-0.14967998761479806,-0.08394461075796888,-0.27995839305132025
-23.371000000000002,25.0,17.56,0.06534854033991566,0.017354731135132972,0.4196933547095341
-19.371,25.0,17.56,-0.08836510291060362,-0.0182325975150055,0.10891132826475053
-15.371000000000002,25.0,17.56,-0.20845651236911233,-0.04590157240983439,0.028557949788295123
-11.371,25.0,17.56,-0.03943777085560762,0.037173703097542754,0.1363902974581957
-7.3709999999999996,25.0,17.56,-0.1954559967683997,0.08314143972776855,-0.12817718514447768
-3.3710000000000004,25.0,17.56,-0.06720702179859456,-0.08482189574182675,-0.16395430568233865
0.6289999999999997,25.0,17.56,-0.14779627463529094,-0.049718134830106786,0.012997329611881547
0.6289999999999997,25.0,21.560000000000002,-0.056966891542302445,-0.3295743999565004,-0.12318137651323308
-3.3710000000000004,25.0,21.560000000000002,0.1384525588390223,-0.22327534796880433,-0.1700456823182192
-7.3709999999999996,25.0,21.560000000000002,-0.036663219658203405,0.06233303528581646,0.08540979014195899
-11.371,25.0,21.560000000000002,-0.4014668182347192,-0.07092827987064121,-0.018402177020361565
-15.371000000000002,25.0,21.560000000000002,-0.3492502438579098,-0.23590950459474458,-0.1654846420626202
-19.371,25.0,21.560000000000002,-0.3069830869838863,-0.28428193284751324,-0.26220357990007354
-23.371000000000002,25.0,21.560000000000002,-0.16709107622149277,-0.2897127198435545,-0.25121042942638644
-27.371000000000002,25.0,21.560000000000002,-0.1133778566996535,-0.17703298315783766,-0.158865500712925
-27.371000000000002,25.0,25.56,-0.03461500295564579,0.207243539481633,0.3030629814167324
-23.371000000000002,25.0,25.56,-0.09223534702581526,-0.1588583903229246,-0.2671608390056729
-19.371,25.0,25.56,-0.2995799405584365,-0.21033528601335783,-0.27219498346139626
-15.371000000000002,25.0,25.56,-0.47923078318756474,-0.10514389633304311,-0.14388365236741862
-11.371,25.0,25.56,0.05527260951990742,0.10200505096343015,0.3407086613894522
-15.371000000000002,25.0,29.56,-0.09988453676197662,0.034565303414269,0.1335951298104071
-19.371,25.0,29.56,-0.08417068982536913,-0.042281247390740795,0.13746738875521636
-23.371000000000002,25.0,29.56,-0.2878387140220706,0.0549534977280719,-0.0034931005098076673
-27.371000000000002,25.0,29.56,-0.34232217025004785,0.2691473754707824,0.08275448518078321
4.629,30.0,1.5599999999999996,-0.04225133351530609,-0.017475871422151235,-0.15675827940577758
0.6289999999999997,30.0,1.5599999999999996,0.032374750728203505,-0.1036170881322851,-0.008126692270091218
-3.3710000000000004,30.0,1.5599999999999996,-0.17885559097808174,0.044380686919232026,0.026208218446791
-7.3709999999999996,30.0,1.5599999999999996,-0.14597143726374218,0.016853099473651545,0.10015911309296383
-11.371,30.0,1.5599999999999996,-0.07856442148457266,-0.08137617498845673,0.09345308299749944
-15.371000000000002,30.0,1.5599999999999996,-0.02271401361277625,-0.05334749387106985,-0.3046717375941324
-19.371,30.0,1.5599999999999996,0.047304070956308286,-0.010392055340813222,-0.10874294987343186
-23.371000000000002,30.0,1.5599999999999996,-0.04548685569376598,-0.05060626185462436,0.1420281056632694
-27.371000000000002,30.0,1.5599999999999996,0.2644424094050246,-0.1414542412842723,-0.5449687379732809
-27.371000000000002,30.0,-2.4400000000000004,0.1902666065263403,-0.13952871409294576,0.22222285121213936
-23.371000000000002,30.0,-2.4400000000000004,0.404928635668933,-0.30969918203981317,-0.19131304903016177
-19.371,30.0,-2.4400000000000004,0.323832052930742,-0.19099601164933033,-0.3857759187787385
-15.371000000000002,30.0,-2.4400000000000004,0.0821479424028021,-0.17246898508185282,0.05502143047305674
-11.371,30.0,-2.4400000000000004,0.23787952100672027,-0.18639796477406545,-0.06474146096663302
-7.3709999999999996,30.0,-2.4400000000000004,-0.09947069050553203,-0.03619167724502326,0.1633667086631374
-3.3710000000000004,30.0,-2.4400000000000004,0.07261309105888597,0.03240603962672006,0.02804022695259145
0.6289999999999997,30.0,-2.4400000000000004,0.05391040555728088,-0.0071338827807354566,0.10774937939861395
4.629,30.0,-6.4399999999999995,0.08245131804503723,-0.0483698764961793,0.11232629563774077
0.6289999999999997,30.0,-6.4399999999999995,0.06525538707054523,0.061592602440618816,-0.05350878555668015
-3.3710000000000004,30.0,-6.4399999999999995,0.057021140635586665,0.0786675136885906,-0.01646983136777691
-7.3709999999999996,30.0,-6.4399999999999995,0.08711564762122481,-0.01143182416168953,-0.009464309063703102
-11.371,30.0,-6.4399999999999995,-0.1705963639238528,-0.094028955538622,-0.00654899231535
-15.371000000000002,30.0,-6.4399999999999995,-0.04634020981101605,-0.14279866643556183,0.1925406820570713
-19.371,30.0,-6.4399999999999995,-0.04247451168877536,-0.010756714705428827,0.2810745682694876
-23.371000000000002,30.0,-6.4399999999999995,0.4867123075427804,-0.286529282476794,-0.3447365458314894
-27.371000000000002,30.0,-6.4399999999999995,-0.1990030807378751,0.05969859979049197,0.6120446981108141
-27.371000000000002,30.0,-10.440000000000001,-0.42538578757215784,0.1602386031952785,0.2911766428011442
-23.371000000000002,30.0,-10.440000000000001,0.36080263055375816,-0.12225724078160916,-0.1474999980933367
-15.371000000000002,30.0,-10.440000000000001,0.2326875536749623,-0.12888728730510168,-0.14014584661127816
-11.371,30.0,-10.440000000000001,0.2774377019492902,-0.17580042493168246,-0.045088627646999724
-7.3709999999999996,30.0,-10.440000000000001,0.16318969395112404,0.059250270723393283,-0.13458185107650678
-3.3710000000000004,30.0,-10.440000000000001,0.08064075300515533,0.21575655192719312,-0.3409273522505335
0.6289999999999997,30.0,-10.440000000000001,0.06810325622548241,0.018047517104069488,-0.16623795824681764
4.629,30.0,-10.440000000000001,0.034792165140481654,-0.16275454130675326,0.07060498668218229
8.629000000000001,30.0,-14.440000000000003,-0.061404146267919624,-0.11187647240916143,0.06993598865524253
0.6289999999999997,30.0,-14.440000000000003,0.15336987177425598,0.029036717626795827,0.05342904141874827
-3.3710000000000004,30.0,-14.440000000000003,0.06840666720504401,0.052659700796647835,-0.09614822021302427
-7.3709999999999996,30.0,-14.440000000000003,0.23125177247334816,0.01176043951256478,-0.009660621458190688
-11.371,30.0,-14.440000000000003,0.23137940107084143,-0.10233090971460412,0.04229815339718557
-15.371000000000002,30.0,-14.440000000000003,0.09930474901957698,0.11162184279834286,0.008722691834292529
-19.371,30.0,-14.440000000000003,0.17624678172285801,0.05192753980847176,-0.07576279527267138
-23.371000000000002,30.0,-14.440000000000003,0.08853386460666579,-0.10499725142462113,-0.16160265251255745
-27.371000000000002,30.0,-14.440000000000003,0.37675196775520114,0.07924935495068341,-0.49332257695907655
-27.371000000000002,30.0,-18.44,-0.13695057871719318,0.11367731436192074,-0.1825340380246232
-23.371000000000002,30.0,-18.44,-0.2048031538596562,0.1431757045185389,-0.04221119140866425
-19.371,30.0,-18.44,-0.13810246197344112,0.12167384422199223,-0.07892356865619177
-15.371000000000002,30.0,-18.44,-0.1635277797525564,0.064225760435771,-0.124591242827371
-11.371,30.0,-18.44,-0.07084328125894768,0.03625414791451065,-0.18392857644287663
-7.3709999999999996,30.0,-18.44,0.019207153934711063,0.04238776692755408,-0.06013720725088212
-3.3710000000000004,30.0,-18.44,0.1010527117006596,-0.04573631573189796,-0.08265509629637458
0.6289999999999997,30.0,-18.44,-0.07367548095200682,-0.021784528218515842,0.001002891896845215
4.629,30.0,-18.44,-0.11714164063479117,-0.1846131735899037,0.170907919224067
8.629000000000001,30.0,-18.44,-0.21921334717915492,-0.032369756286265705,0.06828890209778504
0.6289999999999997,30.0,5.56,-0.024272010433191993,-0.11888803182548702,0.04492215767222946
-3.3710000000000004,30.0,5.56,-0.04057987487401521,-0.03512049607533596,-0.007091251960524014
-7.3709999999999996,30.0,5.56,-0.10678700566176258,-0.01217534086024874,0.2023869313757018
-11.371,30.0,5.56,-0.02942708348445955,0.007034658367049973,-0.05028895385072868
-15.371000000000002,30.0,5.56,-0.12075215896808766,0.07331235304815498,0.2548334947526945
-19.371,30.0,5.56,-0.00640200659680068,-0.1372951768775832,-0.40492125348361024
-23.371000000000002,30.0,5.56,0.13343756482360192,-0.07220415375755462,0.16202054486786216
-27.371000000000002,30.0,5.56,0.17553236733199307,-0.07474072672841725,-0.7128610721963691
-27.371000000000002,30.0,9.559999999999999,-0.030171644883053572,0.19332716447374998,0.24651157498763523
-23.371000000000002,30.0,9.559999999999999,-0.07157292236561474,0.07672556090394522,0.1325048089230403
-19.371,30.0,9.559999999999999,-0.2559991142994683,0.08437892603666564,-0.31071442522840265
-15.371000000000002,30.0,9.559999999999999,-0.12864010444320895,0.12695765549317617,0.2062046388206347
-11.371,30.0,9.559999999999999,-0.11041826857358106,-0.009709832723603373,0.038188662487257524
-7.3709999999999996,30.0,9.559999999999999,-0.08617767926296371,-0.021892046872884485,-0.020062210449530576
-3.3710000000000004,30.0,9.559999999999999,-0.010306389765764312,-0.12992592990205276,-0.20516761990944307
0.6289999999999997,30.0,9.559999999999999,0.034043296201681505,-0.08551254523266882,0.008903342091857308
0.6289999999999997,30.0,13.56,0.01689647498414465,0.06470552332460966,0.10501848923220869
-3.3710000000000004,30.0,13.56,-0.04622217016161945,-0.07188452812015855,-0.07183764163553596
-7.3709999999999996,30.0,13.56,-0.1074630905961882,0.008318483525915354,0.12378064792078203
-11.371,30.0,13.56,0.052349562455700216,0.09523575881685287,0.3405118098655735
-15.371000000000002,30.0,13.56,-0.08892905319512756,0.16503795281220257,0.5230977011470905
-19.371,30.0,13.56,-0.03971356184146735,0.15690541049353524,0.3628354180372162
-23.371000000000002,30.0,13.56,-0.025535652850916524,0.13882723616401305,0.45430117161080474
-27.371000000000002,30.0,13.56,-0.029411944802876233,0.01467393088133706,0.12600529447304165
-27.371000000000002,30.0,17.56,-0.027095063304410916,-0.12550079576266748,-0.1261185111139193
-23.371000000000002,30.0,17.56,0.0016508302206896808,0.012105473878987194,0.2519504803066855
-19.371,30.0,17.56,-0.34913856558572987,0.05831836904670595,-0.44603428355124847
-15.371000000000002,30.0,17.56,0.09090241097175489,0.16912095757264378,0.3364448409022572
-11.371,30.0,17.56,-0.05673878101721541,0.0750280196658848,0.10094635441206395
-7.3709999999999996,30.0,17.56,-0.10025230467393675,0.02844864212552256,-0.12167056103968704
-3.3710000000000004,30.0,17.56,-0.05675004711854087,-0.17082665424427712,-0.24645364129984165
0.6289999999999997,30.0,17.56,0.0798282217208901,0.10984265038441743,0.09256035217207886
4.629,30.0,17.56,0.024912084160430212,0.27134409012350424,0.1630272006239844
4.629,30.0,21.560000000000002,0.3821931274047088,0.13398586639363774,-0.0978751188710339
0.6289999999999997,30.0,21.560000000000002,0.22705320432747644,-0.0006662630908926825,0.12713793691021408
-3.3710000000000004,30.0,21.560000000000002,0.01682068005396664,-0.28430189618684487,0.00541665832016619
-7.3709999999999996,30.0,21.560000000000002,0.29640831627388564,-0.10554690294037328,0.35990308506638063
-11.371,30.0,21.560000000000002,0.17402213637803254,-0.07671663956133612,0.1492472315042223
-15.371000000000002,30.0,21.560000000000002,-0.1815507979352371,0.05199173066889884,-0.06997579908999546
-19.371,30.0,21.560000000000002,0.034372530889856256,0.052822189026996424,0.018338247479192382
-23.371000000000002,30.0,21.560000000000002,0.03053978760312326,-0.13860219754432967,-0.009644384087272029
-27.371000000000002,30.0,21.560000000000002,-0.09828067733148038,-0.10969132455259656,-0.1558517900025272
-27.371000000000002,30.0,25.56,-0.04761759576218938,0.16636845589030336,0.24326411976251794
-23.371000000000002,30.0,25.56,-0.177534937888002,0.011858932371100472,-0.24157104482358804
-19.371,30.0,25.56,0.424277457993813,0.17680732132833166,0.28602543769855326
-15.371000000000002,30.0,25.56,-0.38257220693394267,-0.06844920654395237,-0.31877457001869003
-11.371,30.0,25.56,-0.22388023794744083,-0.08863124699255431,-0.09763011718089964
-7.3709999999999996,30.0,25.56,0.08832098385358478,-0.1945891706033931,-0.11872372017991684
-7.3709999999999996,30.0,25.56,0.0714125300196683,-0.1388977186805751,-0.02299593192806315
-3.3710000000000004,30.0,25.56,0.11533166072817264,-0.17927010864084436,-0.2669737170494818
0.6289999999999997,30.0,25.56,-0.08915942368381002,-0.11935503863285679,-0.02363648065677737
-7.3709999999999996,30.0,29.56,0.00032674497599249896,-0.04925115711164052,-0.21243374196225628
-11.371,30.0,29.56,0.2412788260232973,-0.01798724442161337,-0.11066722263511075
-15.371000000000002,30.0,29.56,-0.11708654066063806,-0.14937232145798562,-0.22090911838793248
-19.371,30.0,29.56,0.2524750446293661,-0.20934679066358375,0.3317680675944651
-23.371000000000002,30.0,29.56,-0.03801169621047151,-0.03131904539338537,-0.272849801553951
-27.371000000000002,30.0,29.56,-0.07728060781145296,0.007801659092049329,-0.03922728027479783
0.6289999999999997,35.000009999999996,1.5599999999999996,0.0066357599120631106,-0.034598980355021736,0.15988724451414527
-3.3710000000000004,35.000009999999996,1.5599999999999996,-0.0008932592092322778,0.017383174668639256,0.0963919682286346
-7.3709999999999996,35.000009999999996,1.5599999999999996,-0.0554166056511346,0.10305294169249968,0.11403154827089867
-11.371,35.000009999999996,1.5599999999999996,0.005457488010279787,0.0832015977812961,-0.10757402340694222
-15.371000000000002,35.000009999999996,1.5599999999999996,-0.08216043524087169,0.05225311705565061,-0.10185346136322992
-19.371,35.000009999999996,1.5599999999999996,0.04526935965314116,0.05503529177863231,-0.3374164847922134
-23.371000000000002,35.000009999999996,1.5599999999999996,0.20213404893406617,-0.07064601496091227,-0.4863375092954314
-27.371000000000002,35.000009999999996,1.5599999999999996,-0.11350486633792678,0.16629303782751959,0.12190931729328947
-27.371000000000002,35.000009999999996,-2.4400000000000004,-0.06349274852974207,0.026636978303345993,0.04334386902765386
-23.371000000000002,35.000009999999996,-2.4400000000000004,0.2568230320260323,-0.14939507483694991,-0.6621668404902525
-19.371,35.000009999999996,-2.4400000000000004,-0.04140793309459212,-0.10265515004763692,-0.027663701978197786
-15.371000000000002,35.000009999999996,-2.4400000000000004,-0.07014199020092537,-0.09707600168699093,-0.21129654629079564
-11.371,35.000009999999996,-2.4400000000000004,-0.2355012695323344,-0.010513981440712916,0.030475905650281798
-7.3709999999999996,35.000009999999996,-2.4400000000000004,-0.16508103752344294,-0.059890217490948805,0.018499382952005816
-3.3710000000000004,35.000009999999996,-2.4400000000000004,-0.30101408039988203,0.1438961542954198,0.08911600174671408
0.6289999999999997,35.000009999999996,-2.4400000000000004,0.027300641558419825,0.004539423772104145,0.13571153835134353
-3.3710000000000004,35.000009999999996,-6.4399999999999995,-0.08279723134931444,0.14018574233604641,0.07364944789607919
-7.3709999999999996,35.000009999999996,-6.4399999999999995,0.017328477948189147,-0.01418209387451519,0.028624323917111894
-11.371,35.000009999999996,-6.4399999999999995,0.00673990720503892,-0.09784079809952995,0.12105312469544993
-15.371000000000002,35.000009999999996,-6.4399999999999995,0.14219349246803736,-0.14981493833309267,0.1886854863649784
-19.371,35.000009999999996,-6.4399999999999995,-0.050388886413713085,-0.11546692801625014,0.39064617560919945
-23.371000000000002,35.000009999999996,-6.4399999999999995,0.41264313840865263,-0.2512360366076716,-0.3270206776041257
-27.371000000000002,35.000009999999996,-6.4399999999999995,0.011842439914350189,-0.13553031271425486,0.4461769548604583
-27.371000000000002,35.000009999999996,-10.440000000000001,-0.1759376471774765,0.0036008575690471556,0.4449714503535068
-23.371000000000002,35.000009999999996,-10.440000000000001,0.5013337787271976,-0.2776393885300654,-0.1481259422558584
-15.371000000000002,35.000009999999996,-10.440000000000001,0.23166224142815162,-0.16943187940166582,-0.148122520336455
-11.371,35.000009999999996,-10.440000000000001,0.12113182121460953,-0.15323687895137383,0.041931755524018954
-7.3709999999999996,35.000009999999996,-10.440000000000001,0.07802782689122212,0.11476977693483659,-0.16861117665089576
-3.3710000000000004,35.000009999999996,-10.440000000000001,-0.0467861208095291,0.19469606552277585,-0.12639404981395208
0.6289999999999997,35.000009999999996,-10.440000000000001,-0.05274258596533743,0.13355556210640773,0.05646828967328932
0.6289999999999997,35.000009999999996,-14.440000000000003,-0.051058489885402736,-0.0026773639730359733,-0.14178158359055282
-3.3710000000000004,35.000009999999996,-14.440000000000003,-0.05728648255069052,0.14037513873711438,-0.16390083574110426
-7.3709999999999996,35.000009999999996,-14.440000000000003,0.1409039100257442,0.08182305161476,-0.0876507402917781
-11.371,35.000009999999996,-14.440000000000003,0.10488214503310833,-0.1337926085411445,0.015137267962014866
-15.371000000000002,35.000009999999996,-14.440000000000003,0.09904539779705124,-0.032204264967544693,-0.003462032032650053
-19.371,35.000009999999996,-14.440000000000003,0.3093301613336402,0.0023358672602225017,-0.010612294250006427
-23.371000000000002,35.000009999999996,-14.440000000000003,0.3007652174312203,-0.2053006455921047,0.09919983924714104
-27.371000000000002,35.000009999999996,-14.440000000000003,0.332652271502204,0.07456264431464077,-0.12029941416610013
-27.371000000000002,35.000009999999996,-18.44,-0.03970217104258267,0.2371601890542585,-0.10122734634025465
-23.371000000000002,35.000009999999996,-18.44,-0.20716663326424412,0.03611084232310602,0.28432565134469123
-19.371,35.000009999999996,-18.44,-0.16616843101456003,0.06667179513831223,0.12569329551091468
-15.371000000000002,35.000009999999996,-18.44,-0.06425007203359756,0.08790612962282784,-0.05609339954789072
-11.371,35.000009999999996,-18.44,-0.167955814344789,0.0026299456072464977,-0.04629911616833016
-7.3709999999999996,35.000009999999996,-18.44,0.03383285223285959,0.18371788107946485,-0.19049234726485342
-3.3710000000000004,35.000009999999996,-18.44,0.026660061893539477,-0.01873929974967603,-0.036592840672883264
0.6289999999999997,35.000009999999996,-18.44,0.1750421321286444,-0.012466531426730265,0.10535862353507341
4.629,35.000009999999996,-18.44,-0.18082696663387665,-0.0077612133572158015,0.15481570147765633
8.629000000000001,35.000009999999996,-18.44,-0.19402334336803967,-0.04077443224728139,-0.09988676044377365
0.6289999999999997,35.000009999999996,5.56,0.07327223261351101,-0.017275738366806515,-0.002307872803465616
-3.3710000000000004,35.000009999999996,5.56,0.0255867964376863,-0.0608516604372944,0.06209323711280773
-7.3709999999999996,35.000009999999996,5.56,-0.001085055756100406,0.029723715120866245,-0.1351371181527075
-11.371,35.000009999999996,5.56,-0.09526218596809521,0.10197404328741722,0.028964174675723264
-15.371000000000002,35.000009999999996,5.56,-0.13384580619416608,0.057782606726780594,0.13022282960618997
-19.371,35.000009999999996,5.56,-0.09002424299002221,0.02901928725064784,0.04378081222685265
-23.371000000000002,35.000009999999996,5.56,0.09920218683661108,-0.1237275628002632,-0.3585944025357571
-27.371000000000002,35.000009999999996,5.56,0.12408473763724781,-0.06344019865774375,-0.12447773435786541
-27.371000000000002,35.000009999999996,9.559999999999999,-0.15660219635003636,0.1150929702513015,-0.5532352014161211
-23.371000000000002,35.000009999999996,9.559999999999999,-0.06865152052778489,0.036066302872789224,-0.012155958121076033
-19.371,35.000009999999996,9.559999999999999,-0.2086812977787844,0.07550266435104036,-0.310800540728997
-15.371000000000002,35.000009999999996,9.559999999999999,-0.1166938123527056,0.028639144984043963,-0.17879757930834503
-11.371,35.000009999999996,9.559999999999999,-0.09601870270364299,0.002902189307418812,-0.1324964505058944
-7.3709999999999996,35.000009999999996,9.559999999999999,-0.06149664991954018,-0.03119557990861055,-0.21810828518740374
0.6289999999999997,35.000009999999996,13.56,0.0880177354197681,-0.1125421025110096,-0.03581563692235945
-3.3710000000000004,35.000009999999996,13.56,0.02997021714433029,-0.07127944191630542,-0.1912462878045751
-7.3709999999999996,35.000009999999996,13.56,-0.08050667924277555,-0.07359423067962445,-0.136274748287446
-11.371,35.000009999999996,13.56,-0.07796542094845038,0.05199458197110984,-0.012373392222969626
-15.371000000000002,35.000009999999996,13.56,-0.02144273135541719,0.0695259186135111,0.36835897459319145
-19.371,35.000009999999996,13.56,0.05271353640620702,0.1458878268461028,0.33541536267065464
-23.371000000000002,35.000009999999996,13.56,-0.01373461971008183,0.07484540481653146,0.40021117736304124
-27.371000000000002,35.000009999999996,13.56,-0.10938431354836076,0.01846875086131128,0.0977603386668191
-27.371000000000002,35.000009999999996,17.56,-0.16230506280811574,-0.06290054310838511,-0.10167853312210567
-23.371000000000002,35.000009999999996,17.56,0.08759932638249257,-0.013051049355777833,0.3145606172851992
-19.371,35.000009999999996,17.56,-0.06846009775621498,0.08633509146117602,-0.0302534442063615
-15.371000000000002,35.000009999999996,17.56,0.13735075668178387,0.14180544459109767,0.22406258672234142
-11.371,35.000009999999996,17.56,0.14907627481885732,0.06988946730135948,-0.08489753748008172
-7.3709999999999996,35.000009999999996,17.56,-0.1674412342886275,-0.07773287639085136,-0.3200701152124216
-3.3710000000000004,35.000009999999996,17.56,0.23876125936266313,-0.0212776581034968,-0.12014134235446144
0.6289999999999997,35.000009999999996,17.56,0.1458146004714736,-0.015862473267214128,0.042377265531980124
4.629,35.000009999999996,17.56,-0.05490592090414172,0.16911615813844372,0.16902164533674907
4.629,35.000009999999996,21.560000000000002,-0.08297900258894854,0.2567579836115996,0.4264195004395663
0.6289999999999997,35.000009999999996,21.560000000000002,-0.059687679947939554,-0.005445251881613933,0.15607642403035887
-3.3710000000000004,35.000009999999996,21.560000000000002,-0.03935185576430106,-0.12318661829999189,0.2706516467686035
-7.3709999999999996,35.000009999999996,21.560000000000002,-0.0564185457357147,-0.18023976313835122,0.0018472295452251486
-11.371,35.000009999999996,21.560000000000002,-0.02036334480342017,-0.07010371455721254,0.022217147283142002
-15.371000000000002,35.000009999999996,21.560000000000002,0.2766258276412831,0.09888167899191891,0.29154163184072907
-19.371,35.000009999999996,21.560000000000002,-0.07487013098035622,-0.014825924886163744,-0.0411613087216392
-23.371000000000002,35.000009999999996,21.560000000000002,-0.1530380348579774,-0.07647644263659159,-0.061691204261583865
-27.371000000000002,35.000009999999996,21.560000000000002,-0.15624297703204504,-0.023607583212476024,0.14305551090633
-27.371000000000002,35.000009999999996,25.56,-0.121866530727327,0.06763207336972776,0.19478508934663574
-23.371000000000002,35.000009999999996,25.56,0.4772464644002161,0.20879264330684322,0.48064232061556245
-19.371,35.000009999999996,25.56,0.054821430438153906,0.12363819533778853,0.10315174391829218
-15.371000000000002,35.000009999999996,25.56,-0.07404233545220407,0.05570177762675432,0.08260052184233257
-11.371,35.000009999999996,25.56,0.29374942534008963,0.014717921088419628,-0.03824392160927392
-7.3709999999999996,35.000009999999996,25.56,0.6329807739759136,0.046115637255012,0.01440626375908971
-3.3710000000000004,35.000009999999996,25.56,-0.14507459000280415,-0.17116813568846534,-0.05196831171231098
0.6289999999999997,35.000009999999996,25.56,-0.24000858038860096,-0.11136569936927576,0.08824556665937011
4.629,35.000009999999996,29.56,-0.08129868676395625,0.11769611305976757,-0.405753448019161
-7.3709999999999996,35.000009999999996,29.56,-0.08923705887996791,-0.17182061011671856,-0.2636798311388938
-11.371,35.000009999999996,29.56,-0.1322506259698708,-0.18914953413533553,-0.18027294495475965
-15.371000000000002,35.000009999999996,29.56,0.3983486921271512,0.007465586382898737,0.22080095627687035
-19.371,35.000009999999996,29.56,0.6534592029742409,0.12652746155630834,0.376238824259581
-23.371000000000002,35.000009999999996,29.56,-0.1562775937440919,-0.20706078756758117,-0.021910215710094216
-27.371000000000002,35.000009999999996,29.56,0.04196736697526515,-0.16681976429969714,-0.04262570042303515
0.6289999999999997,40.00001,1.5599999999999996,0.1198379654624937,0.11514893875333998,0.13262841073052867
-3.3710000000000004,40.00001,1.5599999999999996,0.0009692945739311898,0.1929122423951768,0.10972363943741459
-7.3709999999999996,40.00001,1.5599999999999996,-0.0008465035092858342,0.2864654570598424,0.19344615577553959
-11.371,40.00001,1.5599999999999996,-0.010232231902507216,0.21164110503156808,0.25396022431569965
-15.371000000000002,40.00001,1.5599999999999996,-0.00927553869926323,0.12504575107390448,0.16825959347867292
-19.371,40.00001,1.5599999999999996,0.16558721343762628,0.12228197917055206,-0.1008889974702637
-23.371000000000002,40.00001,1.5599999999999996,0.14508272311434256,0.06141496163374338,-0.4988634976230366
-27.371000000000002,40.00001,1.5599999999999996,0.05407132286699423,0.14529021806183318,0.044002016877270345
-27.371000000000002,40.00001,-2.4400000000000004,0.038099744815262016,0.05324203663714111,0.30196031677069135
-23.371000000000002,40.00001,-2.4400000000000004,0.1916376258146335,-0.07129406742631406,-0.1683555430201794
-19.371,40.00001,-2.4400000000000004,0.2220985910382972,0.04458942383532838,-0.15392770481698348
-15.371000000000002,40.00001,-2.4400000000000004,0.14461828053325687,0.058136319751495025,-0.06737977510292703
-11.371,40.00001,-2.4400000000000004,-0.04698171110621985,0.030519575486942507,0.0788153577531231
-7.3709999999999996,40.00001,-2.4400000000000004,0.022694703875761335,0.1561784185556192,0.028032996686844225
-3.3710000000000004,40.00001,-2.4400000000000004,0.014664403759510891,0.09800059346679602,0.1650825292926844
0.6289999999999997,40.00001,-2.4400000000000004,0.10143662650182739,0.0994411470106149,0.29494496948292703
-3.3710000000000004,40.00001,-6.4399999999999995,-0.0355870594693955,0.09300723831474067,0.18127676654003388
-7.3709999999999996,40.00001,-6.4399999999999995,0.056222559948712614,0.03901232034471125,0.023656152414527898
-11.371,40.00001,-6.4399999999999995,-0.09385352728948915,0.08395732043087745,0.16433480151187008
-15.371000000000002,40.00001,-6.4399999999999995,0.34753431240062416,-0.021881501340831333,0.05691791506256261
-19.371,40.00001,-6.4399999999999995,-0.039226694723185074,0.09074535987942389,0.42249554227537234
-23.371000000000002,40.00001,-6.4399999999999995,0.09665307262256562,-0.152947424446237,0.2377525779448525
-27.371000000000002,40.00001,-6.4399999999999995,-0.04336596581308583,0.0706976277742355,0.4506828627753784
-27.371000000000002,40.00001,-10.440000000000001,-0.054814076919201815,0.012277310029645827,0.49253529493121506
-23.371000000000002,40.00001,-10.440000000000001,0.43280260461163733,-0.18006382769375495,-0.13474293146291394
-15.371000000000002,40.00001,-10.440000000000001,0.24122791433963953,-0.1227181729740845,0.11707393511053155
-11.371,40.00001,-10.440000000000001,0.16905312477645262,0.044453031418240085,-0.05053689177941523
-7.3709999999999996,40.00001,-10.440000000000001,-0.008945955257258498,0.14168180518385198,0.024220313680581307
-3.3710000000000004,40.00001,-10.440000000000001,-0.037727293847651666,0.2560171043417159,0.06309083179772412
0.6289999999999997,40.00001,-10.440000000000001,0.1748267847668239,0.11000995824377857,0.18393748442964708
0.6289999999999997,40.00001,-14.440000000000003,0.06413248666903293,0.07758045636092059,-0.10199592105245292
-3.3710000000000004,40.00001,-14.440000000000003,0.011715684566541984,0.25804143049877326,-0.21688131941947908
-7.3709999999999996,40.00001,-14.440000000000003,0.19215469892625847,0.10113568417393082,0.07346246798694278
-11.371,40.00001,-14.440000000000003,0.139521210940019,0.010373577396677325,0.11285471896142762
-15.371000000000002,40.00001,-14.440000000000003,0.2609033168730429,-0.0749568763772801,0.10609565246744446
-19.371,40.00001,-14.440000000000003,0.405280970469421,-0.046551078632861564,0.025545246551897383
-23.371000000000002,40.00001,-14.440000000000003,-0.43624145277155746,0.005861676265045412,0.59366367320699
-27.371000000000002,40.00001,-14.440000000000003,0.3544414547724972,0.14946243887481447,-0.31594946188110706
-27.371000000000002,40.00001,-18.44,0.0016598277648049997,0.3211241701781331,-0.14975949934336596
-23.371000000000002,40.00001,-18.44,-0.027105680402694787,0.19847501212877927,0.026398712409964054
-19.371,40.00001,-18.44,0.22234743155595538,-0.07286112507036147,0.08610901531457826
-15.371000000000002,40.00001,-18.44,0.056479309211301953,-0.10765806010340495,-0.06837031010792916
-11.371,40.00001,-18.44,0.06324836821512969,-0.15198629758951254,-0.12123622502691611
-7.3709999999999996,40.00001,-18.44,0.1776384183270946,0.04197176681876025,-0.14962278894198877
-3.3710000000000004,40.00001,-18.44,0.07680526156354367,0.2087345553264952,-0.2777648903466712
0.6289999999999997,40.00001,-18.44,0.1837861980334865,0.012800741610297095,-0.08323104897799971
4.629,40.00001,-18.44,0.3004254481040216,-0.40121616865151366,-0.04255757738112487
8.629000000000001,40.00001,-18.44,0.10975259227792716,-0.1574637138574697,-0.19931047342816588
4.629,40.00001,5.56,0.06329118546715938,0.05118601385025734,-0.31052417489847856
0.6289999999999997,40.00001,5.56,0.15957088186500934,-0.01717793392908007,0.03228850050237125
-3.3710000000000004,40.00001,5.56,0.10918359833862884,0.05397463861649965,0.07045659611971261
-7.3709999999999996,40.00001,5.56,0.11065315165073308,0.06808270020005613,-0.017498284712573475
-11.371,40.00001,5.56,0.09351774338540453,0.16903038140043125,0.05487191033127364
-15.371000000000002,40.00001,5.56,-0.06700523815842685,0.15008683639821108,0.20499479300361695
-19.371,40.00001,5.56,-0.015428196722630516,0.05123095997516813,-0.11981261681555527
-23.371000000000002,40.00001,5.56,0.18016912409842822,-0.10441999549499204,-0.390629276055289
-27.371000000000002,40.00001,5.56,0.2008508673477294,-0.11601137190744848,-0.5563980923072045
-27.371000000000002,40.00001,9.559999999999999,0.1155328545676626,0.04879239314763417,0.14127180135504527
-23.371000000000002,40.00001,9.559999999999999,0.11344582567555106,0.0820484042999281,0.05982010532679452
-19.371,40.00001,9.559999999999999,-0.003506959570118151,0.035053100062465425,-0.09622394458970382
-15.371000000000002,40.00001,9.559999999999999,0.026557869617646612,0.0032300593201861627,-0.1217974947936816
-11.371,40.00001,9.559999999999999,0.16617033312501528,0.1247778208173067,-0.10441437083396274
-7.3709999999999996,40.00001,9.559999999999999,0.15619873444510657,0.029833560195541287,-0.29115907120992535
-3.3710000000000004,40.00001,9.559999999999999,0.18828708895438223,-0.034886942245065944,-0.04002533794151483
0.6289999999999997,40.00001,9.559999999999999,0.2250258906330578,0.11913478134452649,-0.07139759860484637
4.629,40.00001,9.559999999999999,0.17157513014949832,0.0925100497879694,-0.16372320571179863
8.629000000000001,40.00001,13.56,0.22506055185511492,0.10551383683046756,0.014674873532999344
4.629,40.00001,13.56,0.06655277464547686,0.029507557525271233,-0.20470291653393868
0.6289999999999997,40.00001,13.56,0.22676513567944923,-0.1380522935602424,-0.2745607743506906
-3.3710000000000004,40.00001,13.56,0.12647613227667054,-0.14774521977696797,-0.3152304900551295
-7.3709999999999996,40.00001,13.56,0.0941151361036674,-0.010304470330629867,-0.25002595062645905
-11.371,40.00001,13.56,0.27805837421004953,0.23539752056678798,0.06594408768023086
-15.371000000000002,40.00001,13.56,0.19852821478399396,0.1130490695642028,0.20324769755969974
-19.371,40.00001,13.56,0.10351795113646978,0.1993294460013062,0.1308601348542937
-23.371000000000002,40.00001,13.56,-0.14481755068743718,-0.04396610653165656,-0.18335565504222218
-27.371000000000002,40.00001,13.56,-0.1457329527446205,-0.025156540512299985,-0.1456594178841697
-27.371000000000002,40.00001,17.56,-0.08484573801588735,-0.19631213732290154,-0.14432737778136
-23.371000000000002,40.00001,17.56,-0.056897182815363045,-0.07762494121090202,0.025379479322852616
-19.371,40.00001,17.56,0.279707281024999,0.28417445596156665,0.31211530179729025
-15.371000000000002,40.00001,17.56,0.1278882322668956,0.03821576596301224,0.09348432544087487
-11.371,40.00001,17.56,0.2787316790220179,0.14870282978987626,-0.09716001070518704
-7.3709999999999996,40.00001,17.56,0.22437441330359353,-0.02391496687650929,-0.15188225002045058
-3.3710000000000004,40.00001,17.56,0.26359380597480164,-0.11188368251669467,-0.18271284543884686
0.6289999999999997,40.00001,17.56,0.023735844262662287,-0.0745829228759598,0.06949906701211456
4.629,40.00001,17.56,0.05555031493635586,0.05323833850385262,0.05865199711106023
4.629,40.00001,21.560000000000002,0.1531370833574266,0.16160048636743585,0.13741572315148914
0.6289999999999997,40.00001,21.560000000000002,-0.16470522606951699,0.019786338374400136,0.24620460199095
-3.3710000000000004,40.00001,21.560000000000002,0.259191808942906,-0.0729467826073249,0.18317341547880867
-7.3709999999999996,40.00001,21.560000000000002,-0.06590257285501444,-0.03587227180645303,0.24777679235535727
-11.371,40.00001,21.560000000000002,-0.17294693354466817,-0.12734136224384907,-0.26511252822602055
-15.371000000000002,40.00001,21.560000000000002,-0.18258295345617293,-0.08307515767959073,-0.28697613565294017
-19.371,40.00001,21.560000000000002,-0.16564482299467054,-0.14727417706894563,-0.044075200386374525
-23.371000000000002,40.00001,21.560000000000002,-0.13040774255772547,-0.255154244455863,-0.21865660101131473
-27.371000000000002,40.00001,21.560000000000002,0.09764262210522623,-0.0887623010252081,0.013273649584287506
-27.371000000000002,40.00001,25.56,-0.020300556716418283,0.0724393787340738,0.20889812990262102
-23.371000000000002,40.00001,25.56,-0.10940119314940544,0.0725069818522106,-0.1941983567386757
-19.371,40.00001,25.56,-0.23234009975442171,0.04070244938942369,-0.33460481310462475
-15.371000000000002,40.00001,25.56,-0.29815204575668885,0.004428371532322339,-0.3597996349832072
-11.371,40.00001,25.56,0.11839676274391364,0.035154605033815844,-0.014868027285888652
-7.3709999999999996,40.00001,25.56,0.7339398664274105,0.2599462918422446,0.17758458531421384
-3.3710000000000004,40.00001,25.56,0.5846712306210631,0.19758204478800834,0.05085880490209582
-3.3710000000000004,40.00001,29.56,0.4923357819135596,0.13906048532326687,-0.12687167390692256
-7.3709999999999996,40.00001,29.56,0.32066599347608526,0.0736355584105397,0.017214748242602718
-7.3709999999999996,40.00001,29.56,0.29333527211281296,0.11812111177810225,0.04490244966210144
-11.371,40.00001,29.56,-0.14761339106199034,0.03409316784201977,-0.2240620096107676
-15.371000000000002,40.00001,29.56,-0.2626723770260908,0.18029583848339636,-0.17236540152487378
-19.371,40.00001,29.56,-0.12521475535028914,-0.1982497475882583,-0.0829885209194442
-23.371000000000002,40.00001,29.56,-0.34575771556751844,-0.2136194536511704,-0.21622694088665184
-27.371000000000002,40.00001,29.56,0.5408647497445018,-0.03231438817078436,0.019122283879527413
4.629,45.00001,1.5599999999999996,-0.15540263693999723,0.0020653728800390514,-0.32831386335898105
-3.3710000000000004,45.00001,1.5599999999999996,-0.11549311098495024,-0.12853543902755504,-0.03183754266994909
-7.3709999999999996,45.00001,1.5599999999999996,-0.1387930853212066,0.09070533273994319,-0.028320033657031063
-11.371,45.00001,1.5599999999999996,-0.15358905734588757,0.1594181297266739,0.06621750010578631
-15.371000000000002,45.00001,1.5599999999999996,-0.18890073412924646,0.07880670108241783,0.1435631633615403
-19.371,45.00001,1.5599999999999996,-0.2178698084321723,0.16810500473835033,0.12917705674627689
-23.371000000000002,45.00001,1.5599999999999996,-0.22239604773625077,0.0338310226956795,-0.19528143093117678
-27.371000000000002,45.00001,1.5599999999999996,-0.1345062864718971,0.0844221624265562,-0.14349409482893316
-27.371000000000002,45.00001,-2.4400000000000004,-0.18147965543823807,0.03967092413827977,0.06029908667097017
-23.371000000000002,45.00001,-2.4400000000000004,-0.3456712305501375,0.1483345259254365,0.2700144978440372
-19.371,45.00001,-2.4400000000000004,-0.1455615873081434,0.22591113540952334,-0.0686028483670581
-15.371000000000002,45.00001,-2.4400000000000004,0.015861934922126175,-0.0429102237919643,-0.03506033504715733
-11.371,45.00001,-2.4400000000000004,-0.1834369121373136,0.058271933328762904,0.0032221417466449243
-7.3709999999999996,45.00001,-2.4400000000000004,-0.10154436121182775,0.06490751269934703,-0.15561685294852856
-3.3710000000000004,45.00001,-2.4400000000000004,-0.20587235272113286,0.0195128762823904,-0.02352252841996416
-3.3710000000000004,45.00001,-6.4399999999999995,-0.0662344163878184,-0.12279859983824748,-0.02071524984177675
-7.3709999999999996,45.00001,-6.4399999999999995,-0.16347639004868075,-0.09696162271564668,0.008623611021091326
-11.371,45.00001,-6.4399999999999995,-0.25123329966182384,0.006163083769195055,-0.170557618385328
-15.371000000000002,45.00001,-6.4399999999999995,-0.21905071719031388,-0.06508973197209555,0.022854122202728422
-19.371,45.00001,-6.4399999999999995,0.14658792549262223,-0.020179231112077423,-0.25138375574797756
-23.371000000000002,45.00001,-6.4399999999999995,-0.31294758845268333,-0.006739756045703871,-0.03764857883502837
-27.371000000000002,45.00001,-6.4399999999999995,-0.09973629179171328,-0.09026606994076425,-0.011240017910604805
-27.371000000000002,45.00001,-10.440000000000001,0.1451196199113769,-0.16084980342218058,-0.308649007837844
-23.371000000000002,45.00001,-10.440000000000001,0.26705023402290307,-0.2769106114738573,-0.3147034051470182
-15.371000000000002,45.00001,-10.440000000000001,-0.2789167865552139,0.051725914355738034,0.15352315380090242
-11.371,45.00001,-10.440000000000001,0.009845261167673591,-0.03403450223618543,-0.14712231268929898
-7.3709999999999996,45.00001,-10.440000000000001,-0.05801667819806122,-0.13011118534297927,-0.029410598221343842
-3.3710000000000004,45.00001,-10.440000000000001,-0.13407714797148557,-0.32827802064222533,0.11797231192607616
0.6289999999999997,45.00001,-10.440000000000001,-0.13004981338585742,0.016947034544168016,-0.006503323196119237
0.6289999999999997,45.00001,-14.440000000000003,-0.17692025611765194,-0.050767611904734,-0.11999142475224434
-3.3710000000000004,45.00001,-14.440000000000003,-0.13711637266961701,0.07840658185478411,-0.05389861086724512
-7.3709999999999996,45.00001,-14.440000000000003,-0.024179072005395263,-0.023270762411431445,0.004014094388296585
-7.3709999999999996,45.00001,-14.440000000000003,-0.02365798654747897,0.01893158211760948,-0.02070203565630313
-11.371,45.00001,-14.440000000000003,-0.063589502585637,-0.04756437537941083,0.08047611708695557
-15.371000000000002,45.00001,-14.440000000000003,0.06375691885881773,-0.11859807280456547,0.013375038233012781
-19.371,45.00001,-14.440000000000003,0.11402186126093505,-0.026766052938037577,-0.07529945856835363
-23.371000000000002,45.00001,-14.440000000000003,-0.16628499701472066,-0.242094660476605,0.2917038598946764
-27.371000000000002,45.00001,-14.440000000000003,-0.1688960219072555,0.01653838891773063,0.10641791082410534
-27.371000000000002,45.00001,-18.44,0.0178290049870633,0.17662144995002627,-0.2953051043821542
-23.371000000000002,45.00001,-18.44,0.09972507696291988,-0.1084501265311677,0.11471670907211018
-19.371,45.00001,-18.44,0.0430127244039652,0.024221936264690047,0.14021657241582441
-15.371000000000002,45.00001,-18.44,-0.00019903036586332856,-0.11502962824583296,0.04228521052981882
-11.371,45.00001,-18.44,-0.00947407806760614,-0.012525650689931833,0.03585875332336452
-7.3709999999999996,45.00001,-18.44,0.022752203463913268,0.02936069176955325,0.07833226737993804
-3.3710000000000004,45.00001,-18.44,0.13599768617893887,-0.005587007255491994,0.14685273709105773
0.6289999999999997,45.00001,-18.44,0.039797232049321174,0.07951878169161208,0.08330857000031222
4.629,45.00001,-18.44,0.026778397219825653,-0.10686327157389819,0.10593491106871133
-3.3710000000000004,45.00001,5.56,0.04728571526648878,-0.03420691348260951,-0.14453621426035873
-7.3709999999999996,45.00001,5.56,0.011165022709611061,0.05189677004475701,-0.10164136274130459
-11.371,45.00001,5.56,-0.010638497986165119,0.0926359461467463,-0.05963146425057991
-15.371000000000002,45.00001,5.56,-0.09401754716673871,0.11081639248649577,0.056793078519896956
-19.371,45.00001,5.56,-0.1502800584790992,0.11331228894391199,0.025519530009061875
-23.371000000000002,45.00001,5.56,-0.06871704144291169,0.04324755220815879,0.1251803016267497
-27.371000000000002,45.00001,5.56,-0.04937092791180153,-0.0012682611843006786,-0.016475133602260328
-27.371000000000002,45.00001,9.559999999999999,0.09731129898271074,-0.03135070237280102,0.1249135658486035
-23.371000000000002,45.00001,9.559999999999999,-0.05147889381940107,-0.16190308486713212,-0.3902127429952794
-19.371,45.00001,9.559999999999999,-0.05027306008219268,-0.17736429759989125,-0.01674222300314318
-15.371000000000002,45.00001,9.559999999999999,-0.07820319423130495,0.036562449141119835,0.03155229524208006
-11.371,45.00001,9.559999999999999,0.10378118569004946,0.019605961342628042,0.1355348327361429
-7.3709999999999996,45.00001,9.559999999999999,-0.004312295833783231,-0.09442203170461072,-0.02521506354530509
-3.3710000000000004,45.00001,9.559999999999999,0.09063013050618213,-0.10800017715089649,0.10479978752934507
4.629,45.00001,13.56,0.08354227591293971,-0.01744915497189914,-0.23296084999896993
-3.3710000000000004,45.00001,13.56,-0.04322393068243863,-0.14961239375335111,-0.09626444586518512
-7.3709999999999996,45.00001,13.56,0.11209190590999174,-0.04303555994418229,-0.23395122684419234
-11.371,45.00001,13.56,0.16809902208522187,0.09889290536582163,-0.05833795740654568
-15.371000000000002,45.00001,13.56,-0.17837276278670766,-0.10264476446043558,-0.21244530613070967
-19.371,45.00001,13.56,-0.023393052312645213,0.057975851691927094,0.12185317531330786
-23.371000000000002,45.00001,13.56,-0.020956128214855152,-0.02972525478082133,0.12375248168696174
-27.371000000000002,45.00001,13.56,-0.05161941964466066,0.08998529179369275,0.20816187281111342
-27.371000000000002,45.00001,17.56,-0.09424984181968799,0.07340523202570282,0.30676679341957863
-23.371000000000002,45.00001,17.56,-0.22550833485900368,-0.02619476485987149,-0.13173003872944816
-19.371,45.00001,17.56,-0.25563155165099494,-0.05733771008012423,-0.5586087529510051
-15.371000000000002,45.00001,17.56,0.3200992165838801,0.15693751408862866,0.2023691331577107
-11.371,45.00001,17.56,-0.016688046778656762,0.05589912845384015,-0.3497958383432129
-7.3709999999999996,45.00001,17.56,0.3335777197646522,-0.047088438986236936,-0.39732782679507833
-3.3710000000000004,45.00001,17.56,-0.08611441395934144,-0.18498343109675242,-0.20149911612757782
0.6289999999999997,45.00001,17.56,-0.2453837135803938,-0.3022619883645272,0.14101812035029054
4.629,45.00001,17.56,-0.2821377912519938,-0.03706818698077097,0.05414817013613821
8.629000000000001,45.00001,17.56,0.05420350819070191,-0.20369476373888196,0.09121873593977009
4.629,45.00001,21.560000000000002,-0.5247725495618558,0.13035075962065656,0.2390063131768358
0.6289999999999997,45.00001,21.560000000000002,-0.34886832587850414,-0.08790095941395015,-0.019895574708962693
-3.3710000000000004,45.00001,21.560000000000002,-0.28703376861675817,0.007186593382890738,0.2258781421497255
-7.3709999999999996,45.00001,21.560000000000002,0.1274304859498393,-0.03726702787016922,0.005366536342886474
-11.371,45.00001,21.560000000000002,0.31855923440380907,0.042387644939057,-0.0909750321295491
-15.371000000000002,45.00001,21.560000000000002,0.11095879582748991,0.07441417948932383,0.016900426715048267
-19.371,45.00001,21.560000000000002,0.14407543471668116,0.12932263209193828,0.2698231188098518
-23.371000000000002,45.00001,21.560000000000002,-0.18198922920267258,-0.19245619776779854,-0.09797523643521183
-27.371000000000002,45.00001,21.560000000000002,-0.12839178184195776,-0.09371347166660104,-0.08124308745030145
-27.371000000000002,45.00001,25.56,-0.2668032445712176,0.10504739967790444,-0.08304826094131246
-23.371000000000002,45.00001,25.56,0.5002585776294532,0.29258939028740105,0.3455850605999927
-19.371,45.00001,25.56,-0.4233838649085747,-0.1156500506475644,-0.3289820923462
-15.371000000000002,45.00001,25.56,-0.590922183167078,-0.004532949401558906,-0.41495537228315726
-11.371,45.00001,25.56,-0.5110640340377448,-0.04370708713637983,-0.0588728981997827
-7.3709999999999996,45.00001,25.56,-0.2388957414509313,0.01831922651283069,0.10450009119868653
-3.3710000000000004,45.00001,25.56,-0.33174442025674794,0.2838708322454475,0.1548271157951614
0.6289999999999997,45.00001,25.56,-0.5577429213552643,0.27932252158864856,0.2602248973085225
-3.3710000000000004,45.00001,29.56,0.6882423324088769,0.27175045855392654,-0.013498853481394568
-7.3709999999999996,45.00001,29.56,-0.3286645955404649,0.0024974379993769613,0.0684474937006102
-11.371,45.00001,29.56,-0.32696360628365895,0.033426157441118765,-0.1556482285680144
-15.371000000000002,45.00001,29.56,-0.2715404681354755,-0.010091867989092673,-0.25505930912163854
-19.371,45.00001,29.56,0.36794744749788777,0.09318318111302681,0.1375274216787875
-23.371000000000002,45.00001,29.56,-0.07741211881903132,-0.024515356643450836,-0.03945752597622476
-27.371000000000002,45.00001,29.56,0.2617903281937062,0.14220918538609406,-0.07771215269440634
4.629,50.000009999999996,1.5599999999999996,-0.021177708659795083,-0.00497350520094475,-0.2346019567881663
0.6289999999999997,50.000009999999996,1.5599999999999996,-0.010018321544846831,-0.04946482435340682,0.042938234835132594
-3.3710000000000004,50.000009999999996,1.5599999999999996,-0.0863294849432053,0.006737010040347435,-0.04805732478368463
-7.3709999999999996,50.000009999999996,1.5599999999999996,0.019621122368437827,-0.08242271284309988,0.21561032693853677
-11.371,50.000009999999996,1.5599999999999996,0.002116785947459121,-0.027475233738993854,0.17411046959875942
-15.371000000000002,50.000009999999996,1.5599999999999996,-0.21139716787523521,0.11259976778701386,0.3127298737931994
-19.371,50.000009999999996,1.5599999999999996,-0.18785938667496282,0.09924520382946223,0.22165646819823914
-23.371000000000002,50.000009999999996,1.5599999999999996,-0.289249968433658,0.05550964974248007,0.0525979293842016
-27.371000000000002,50.000009999999996,1.5599999999999996,-0.18682698964204714,0.053827810469841975,-0.2972426784015547
-27.371000000000002,50.000009999999996,-2.4400000000000004,-0.06493203286128124,0.015854022089389908,-0.4857114861723494
-23.371000000000002,50.000009999999996,-2.4400000000000004,-0.13850813296131248,-0.02809187790436818,-0.5640572903029023
-19.371,50.000009999999996,-2.4400000000000004,-0.110889261832961,-0.030791605603952554,-0.10294092358954787
-15.371000000000002,50.000009999999996,-2.4400000000000004,-0.17395818116951733,-0.10401509507133033,0.017920375236571418
-11.371,50.000009999999996,-2.4400000000000004,-0.152994224801839,-0.017577768094378943,0.035942441586014895
-7.3709999999999996,50.000009999999996,-2.4400000000000004,-0.09715914568422523,-0.042667806809693065,0.09796822584574871
-3.3710000000000004,50.000009999999996,-2.4400000000000004,-0.1543562243140409,0.015530904958166447,0.07615889357363292
-3.3710000000000004,50.000009999999996,-6.4399999999999995,-0.12470877409753306,0.006296285903156784,0.1794528981942739
-7.3709999999999996,50.000009999999996,-6.4399999999999995,-0.18666017924457157,-0.024361778400849854,0.21094395160410617
-11.371,50.000009999999996,-6.4399999999999995,-0.07128081462404179,-0.06177758076936213,0.0378390787275279
-15.371000000000002,50.000009999999996,-6.4399999999999995,0.07785907761417576,-0.15148600669244727,0.04708950437591064
-19.371,50.000009999999996,-6.4399999999999995,0.14849022472062934,-0.08609446936261866,0.038534316403868174
-23.371000000000002,50.000009999999996,-6.4399999999999995,-0.39327780425211234,-0.012334275054470822,0.10310838999984251
-27.371000000000002,50.000009999999996,-6.4399999999999995,-0.37730510956614505,0.009755507200176483,0.41859386381360164
-27.371000000000002,50.000009999999996,-10.440000000000001,-0.2372104680210263,-0.1735545397145155,0.22838642931292952
-23.371000000000002,50.000009999999996,-10.440000000000001,0.08329824428165988,-0.18710206573643307,-0.2928627272579726
-15.371000000000002,50.000009999999996,-10.440000000000001,0.0024582312348725432,-0.008975109518016833,0.015073576230464902
-11.371,50.000009999999996,-10.440000000000001,-0.007984040956399152,-0.14380264204222337,0.10033070227933039
-7.3709999999999996,50.000009999999996,-10.440000000000001,-0.1555628405239734,-0.13989126801582374,0.04293823394178331
-3.3710000000000004,50.000009999999996,-10.440000000000001,-0.291690497243198,-0.05548221446179946,0.022515709361095593
0.6289999999999997,50.000009999999996,-10.440000000000001,-0.19211692417870907,-0.07440448412968648,0.021021876157154007
4.629,50.000009999999996,-14.440000000000003,0.04372679305872616,-0.017854842001507887,-0.18089061509995175
0.6289999999999997,50.000009999999996,-14.440000000000003,-0.05795884504427029,-0.11586914089719569,-0.025157421566388005
-3.3710000000000004,50.000009999999996,-14.440000000000003,-0.11222945949335844,-0.004255360551741472,-0.019623579345026676
-7.3709999999999996,50.000009999999996,-14.440000000000003,0.02100921614692497,-0.12725215570926762,-0.002695625452450723
-11.371,50.000009999999996,-14.440000000000003,0.07105340015961525,-0.22053497620800888,-0.05511554089291659
-15.371000000000002,50.000009999999996,-14.440000000000003,0.08635182023405685,-0.22530884104904336,-0.038808373600743296
-19.371,50.000009999999996,-14.440000000000003,0.21951156341865896,-0.22668292920017263,-0.11301574382892865
-23.371000000000002,50.000009999999996,-14.440000000000003,0.09231033694216961,-0.23794778776869974,-0.2666421142052372
-27.371000000000002,50.000009999999996,-14.440000000000003,0.3506113433679181,-0.21295722754336444,-0.5090729397958099
-27.371000000000002,50.000009999999996,-18.44,0.21204382211684192,-0.16315913720182929,-0.41820278351400453
-23.371000000000002,50.000009999999996,-18.44,0.022035707112899594,-0.0030719295243231137,-0.23192800213164833
-19.371,50.000009999999996,-18.44,0.09313737571354508,-0.05158612503778359,-0.058683397889675026
-15.371000000000002,50.000009999999996,-18.44,0.15155032244530686,-0.21307761849055362,0.0319801028830502
-11.371,50.000009999999996,-18.44,0.10285197245155642,-0.012748933410555718,-0.17384412454719
-7.3709999999999996,50.000009999999996,-18.44,0.18465367403587007,-0.11250372602399361,0.0016654571301566445
-3.3710000000000004,50.000009999999996,-18.44,0.05856673958615638,0.04759642566259381,0.08617339812613811
0.6289999999999997,50.000009999999996,-18.44,-0.010716514590081161,0.10633344456635885,0.06333647759002026
4.629,50.000009999999996,-18.44,0.0795564740341672,0.38755686457644933,0.09132651372262823
8.629000000000001,50.000009999999996,-18.44,-0.0465573464640226,0.7357162024563435,-0.049561520721025376
12.629000000000001,50.000009999999996,-18.44,0.46661479579987036,0.9921085565829213,-0.06744126231261194
-3.3710000000000004,50.000009999999996,5.56,0.12643754758917963,-0.10242555446374757,0.048803141281940354
-7.3709999999999996,50.000009999999996,5.56,0.11548040316100294,0.1198932545191933,0.1524798081681336
-11.371,50.000009999999996,5.56,0.15573696006193072,0.009769274283166762,0.22820259148431804
-15.371000000000002,50.000009999999996,5.56,-0.025505208778928146,-0.007622055968459218,0.18281047957106195
-19.371,50.000009999999996,5.56,-0.07082608321938022,-0.05408057994199522,0.3848896905135693
-23.371000000000002,50.000009999999996,5.56,-0.03284197841421088,-0.11771452979280062,0.21997476482503303
-27.371000000000002,50.000009999999996,5.56,-0.09827887486780207,0.0443489351174331,0.08452099071804137
-27.371000000000002,50.000009999999996,9.559999999999999,0.03580705118950145,-0.07221912153797527,0.16640498408900598
-23.371000000000002,50.000009999999996,9.559999999999999,0.039630319131012115,-0.086962792634393,0.13650534595033084
-19.371,50.000009999999996,9.559999999999999,-0.06150048787274265,-0.29515932230831377,-0.20225410111364348
-15.371000000000002,50.000009999999996,9.559999999999999,0.03964664987050892,0.031840912311292824,0.03569066890468445
-11.371,50.000009999999996,9.559999999999999,0.02427212704966264,-0.04714395317355624,-0.04795874123751029
-7.3709999999999996,50.000009999999996,9.559999999999999,0.18226989601652643,-0.10955233356536587,-0.06993029028346184
-7.3709999999999996,50.000009999999996,13.56,0.3512226901270815,0.05065122926543597,-0.13138229813853264
-11.371,50.000009999999996,13.56,0.20809156345213686,0.02256417348976969,0.05000998875090423
-15.371000000000002,50.000009999999996,13.56,-0.11706110718121276,-0.1344511081262323,0.11776443733537145
-19.371,50.000009999999996,13.56,0.12349052113735659,-0.09399744980432834,0.2352621146948397
-23.371000000000002,50.000009999999996,13.56,0.01654055907559515,-0.1335639385480314,0.13476377981112564
-27.371000000000002,50.000009999999996,13.56,0.043689806206298476,-0.07710843850526894,0.19457970001241498
-27.371000000000002,50.000009999999996,17.56,0.17785538521221667,0.09600014957911185,0.4658538710527918
-23.371000000000002,50.000009999999996,17.56,0.19623107936133088,0.1590916045368651,0.3707765402049881
-19.371,50.000009999999996,17.56,0.08393187013911729,-0.19066811317788313,0.04980434900011682
-15.371000000000002,50.000009999999996,17.56,-0.3859865373898902,-0.15788721477130174,-0.15896022198509246
-11.371,50.000009999999996,17.56,-0.22984051150855556,-0.29012486487290934,-0.06568548397686141
-7.3709999999999996,50.000009999999996,17.56,-0.23883274637796215,-0.23133563878597885,-0.09134664216181448
-3.3710000000000004,50.000009999999996,17.56,-0.15604559973248638,-0.15723528067951298,0.04478290896873377
0.6289999999999997,50.000009999999996,17.56,-0.1644680335203541,-0.2388719353493829,0.14191715886453654
4.629,50.000009999999996,17.56,-0.2733531164727552,-0.06284144214278031,0.21174834783084379
8.629000000000001,50.000009999999996,17.56,0.22919098984554437,-0.19308461630646034,-0.09971812034243882
4.629,50.000009999999996,21.560000000000002,-0.6418378454359139,0.08102668158831983,0.35732039193434456
0.6289999999999997,50.000009999999996,21.560000000000002,-0.4310015792648336,-0.1635115317124236,0.05981622927847402
-3.3710000000000004,50.000009999999996,21.560000000000002,-0.22228902948625145,-0.2321710109708497,0.15601940782917628
-7.3709999999999996,50.000009999999996,21.560000000000002,-0.1518485951886167,-0.07175834354334887,0.08282207413078252
-11.371,50.000009999999996,21.560000000000002,-0.03213565237634164,-0.2099403868274785,-0.00846807025859514
-15.371000000000002,50.000009999999996,21.560000000000002,-0.141082981594709,-0.08098294377426596,-0.14492011999241022
-19.371,50.000009999999996,21.560000000000002,0.15500869904451486,-0.12930214732591594,0.14252564209878832
-23.371000000000002,50.000009999999996,21.560000000000002,-0.02889610427434519,0.11885688148731699,0.22662471074037377
-27.371000000000002,50.000009999999996,21.560000000000002,-0.29064526492484366,-0.23299526348119493,0.025740377625514677
-27.371000000000002,50.000009999999996,25.56,-0.4896487948766015,-0.12381072697783546,-0.2598157188728939
-23.371000000000002,50.000009999999996,25.56,0.26058809081427325,-0.0012308525917048563,0.20899481683690213
-19.371,50.000009999999996,25.56,0.3341561631921314,0.25587759793372356,0.14829208394885052
-15.371000000000002,50.000009999999996,25.56,0.3214075284783152,0.16225794281010675,0.018704529490251587
-11.371,50.000009999999996,25.56,0.23185835415752143,0.008449279301470103,0.274186079084901
-7.3709999999999996,50.000009999999996,25.56,-0.054850177485546436,0.04531911153587975,0.32140376231072076
-3.3710000000000004,50.000009999999996,25.56,0.010196551160350509,0.41105944894098134,0.24824751141590828
-11.371,50.000009999999996,29.56,-0.42563969375343236,-0.32912895301965284,0.35399419470241444
-15.371000000000002,50.000009999999996,29.56,0.45216504187777506,-0.042450444896213746,0.48993012175209405
-3.3710000000000004,55.000009999999996,1.5599999999999996,0.21368125190000392,0.07209330353866727,0.11351370610159228
-7.3709999999999996,55.000009999999996,1.5599999999999996,0.21922393408728424,0.10438479662134847,0.2533687447090538
-11.371,55.000009999999996,1.5599999999999996,0.18994920677091187,0.022563552005594456,0.23161500794885437
-15.371000000000002,55.000009999999996,1.5599999999999996,0.11944227361616877,0.00822185756798044,0.03488547449882473
-19.371,55.000009999999996,1.5599999999999996,0.14304743354453808,0.05134554445797024,0.2775876589239279
-23.371000000000002,55.000009999999996,1.5599999999999996,0.013254330267498116,-0.02550756948541677,-0.256330370277974
-27.371000000000002,55.000009999999996,1.5599999999999996,0.013327584887373733,0.038657624858939865,-0.09676863006489178
-27.371000000000002,55.000009999999996,-2.4400000000000004,-0.1264714390546373,0.10834456111176172,-0.007906595379339465
-23.371000000000002,55.000009999999996,-2.4400000000000004,0.09110713348210453,-0.10433671660786681,-0.435718575370056
-19.371,55.000009999999996,-2.4400000000000004,0.14545675989285634,-0.08822133063716153,-0.23460956269504563
-15.371000000000002,55.000009999999996,-2.4400000000000004,0.08679472706048241,0.0013565939497861557,-0.34132861699148476
-15.371000000000002,55.000009999999996,-2.4400000000000004,0.11414878590700062,-0.027499137848263633,-0.29006574140468533
-11.371,55.000009999999996,-2.4400000000000004,0.11671068403573681,0.08715045468686844,-0.28534339240045836
-7.3709999999999996,55.000009999999996,-2.4400000000000004,0.178680812047724,-0.04157300991790569,-0.19642772049955626
-3.3710000000000004,55.000009999999996,-2.4400000000000004,0.1370274101351307,0.058014353405055896,0.011412735756519132
0.6289999999999997,55.000009999999996,-6.4399999999999995,-0.017111351045628886,-0.021584178717837244,-0.15999744537324168
-3.3710000000000004,55.000009999999996,-6.4399999999999995,-0.07871843093802539,0.13122834943289918,-0.14537296161160895
-7.3709999999999996,55.000009999999996,-6.4399999999999995,-0.31729225759528357,0.053205065073502755,-0.01971188091288989
-11.371,55.000009999999996,-6.4399999999999995,-0.018481293253558295,0.02308722710876454,-0.15111449004063526
-15.371000000000002,55.000009999999996,-6.4399999999999995,0.07809672182316485,0.02254310307200358,-0.044246035245557036
-19.371,55.000009999999996,-6.4399999999999995,-0.23422909413499948,0.1708308296194283,0.22046165749092517
-23.371000000000002,55.000009999999996,-6.4399999999999995,-0.3051454845143464,0.07457528491264798,0.13827646256357184
-27.371000000000002,55.000009999999996,-6.4399999999999995,-0.27021033803237837,0.14281635884011434,0.30820623970309324
-27.371000000000002,55.000009999999996,-10.440000000000001,-0.3252398944943058,0.030340048060784053,0.32354098214038285
-23.371000000000002,55.000009999999996,-10.440000000000001,0.008962341651530537,0.06214306894735122,-0.25819908763283494
-15.371000000000002,55.000009999999996,-10.440000000000001,-0.2279484513142721,0.214492702923319,-0.04003528585510285
-11.371,55.000009999999996,-10.440000000000001,-0.24575026245184928,0.1457832192850561,0.027435161614505765
-7.3709999999999996,55.000009999999996,-10.440000000000001,-0.34398213622589824,0.0891024207804958,0.14600485217252934
-3.3710000000000004,55.000009999999996,-10.440000000000001,-0.17330144848257262,0.03923361002399206,0.12497965884538942
0.6289999999999997,55.000009999999996,-10.440000000000001,-0.10038640171592395,0.054849124910283376,0.06930689496234821
4.629,55.000009999999996,-10.440000000000001,-0.08616020470142739,0.04239409394096727,-0.08020396425943155
8.629000000000001,55.000009999999996,-14.440000000000003,0.10475621022882214,0.2198510172899515,0.1290319314942362
4.629,55.000009999999996,-14.440000000000003,-0.09873349181597525,0.05081276131949641,0.020749878328465976
-3.3710000000000004,55.000009999999996,-14.440000000000003,-0.05517863066714784,0.03349425334678857,0.051111487780428067
-7.3709999999999996,55.000009999999996,-14.440000000000003,-0.056448804122846696,-0.01156749811966895,0.12487650855243781
-11.371,55.000009999999996,-14.440000000000003,-0.0532733883841785,0.05661298068836418,0.022216339374650507
-15.371000000000002,55.000009999999996,-14.440000000000003,-0.06304498092356281,0.07161234167333275,-0.014424223667083846
-19.371,55.000009999999996,-14.440000000000003,0.14243027732254443,-0.006277350289185524,-0.11022674976428337
-23.371000000000002,55.000009999999996,-14.440000000000003,0.030593534147138612,-0.04580240802337654,0.02651628171886633
-27.371000000000002,55.000009999999996,-14.440000000000003,0.05043913214233808,-0.15775386686353032,-0.060450820918825365
-27.371000000000002,55.000009999999996,-18.44,0.18793801295818313,-0.05482964483228825,-0.34579148107020674
-23.371000000000002,55.000009999999996,-18.44,-0.1339245150105528,0.07625723387961747,0.11048979792460112
-19.371,55.000009999999996,-18.44,0.13291275426134674,0.09111992001132885,0.07738769482493191
-15.371000000000002,55.000009999999996,-18.44,0.015321315833807803,0.21601165890065,-0.09939288531061741
-11.371,55.000009999999996,-18.44,0.0059307786976936505,0.018700319705888813,-0.04369661523340729
-7.3709999999999996,55.000009999999996,-18.44,-0.018191662105895845,0.12652205447455378,0.1282046090469724
-3.3710000000000004,55.000009999999996,-18.44,0.09276024677129929,0.19947386460646976,0.13955630728209045
-7.3709999999999996,55.000009999999996,5.56,0.33141203506989736,-0.006937779754989659,0.14560169119911676
-11.371,55.000009999999996,5.56,0.3864950998193395,0.04851637339567949,0.14260922406910265
-15.371000000000002,55.000009999999996,5.56,0.1257069411781747,0.01978358920341483,-0.11663631915358325
-19.371,55.000009999999996,5.56,0.10031074649557714,0.127765490317866,0.18429511734295995
-23.371000000000002,55.000009999999996,5.56,0.04116838358713126,0.2783512193499038,0.23598932464332784
-27.371000000000002,55.000009999999996,5.56,0.13468965656386334,0.018623047589449993,-0.0006034473437374621
-27.371000000000002,55.000009999999996,9.559999999999999,0.3066970034264316,-0.025648897064389775,-0.01764099217204315
-23.371000000000002,55.000009999999996,9.559999999999999,0.1614871013317587,-0.001086756878654338,-0.06923317636943413
-19.371,55.000009999999996,9.559999999999999,0.07822095689163644,0.04750966013166158,-0.13630931179609215
-15.371000000000002,55.000009999999996,9.559999999999999,0.22597943922068875,0.11954166608377781,-0.14575400818667358
-11.371,55.000009999999996,9.559999999999999,0.40902796400403285,0.01225193676691605,-0.006633189107720788
4.629,55.000009999999996,13.56,0.6716516098216965,0.33125699726378466,-0.35893878691665715
-7.3709999999999996,55.000009999999996,13.56,0.26851368171113277,-0.03787955920288022,-0.1998626902810441
-11.371,55.000009999999996,13.56,0.17029491419924825,0.02831742259304937,0.002550890138869333
-15.371000000000002,55.000009999999996,13.56,0.1806483835119027,0.04324209569755988,0.2398272145544278
-19.371,55.000009999999996,13.56,0.3166225244732229,0.2101049541435196,0.16069190126978827
-23.371000000000002,55.000009999999996,13.56,0.2294046852544529,-0.0004249224756169845,0.09947798457011214
-27.371000000000002,55.000009999999996,13.56,0.2923029933706467,-0.05453102022864309,0.03983471920162018
-27.371000000000002,55.000009999999996,17.56,0.39209287251429914,0.03496298522135399,0.22817072051508763
-23.371000000000002,55.000009999999996,17.56,-0.13736365977562448,-0.1842259948141689,-0.4573297531807338
-19.371,55.000009999999996,17.56,0.3268503860354738,0.21040441625014283,0.09808335058558854
-15.371000000000002,55.000009999999996,17.56,0.19856298132414907,0.0801130664936811,0.25822904850477807
-11.371,55.000009999999996,17.56,0.47303144965299415,0.2810036284305206,-0.1694674267404203
-7.3709999999999996,55.000009999999996,17.56,0.44952824870021224,0.11536819232705886,-0.44335334673188814
-3.3710000000000004,55.000009999999996,17.56,0.23640250872657836,0.13843013922628655,-0.2675479856200966
0.6289999999999997,55.000009999999996,17.56,0.29649145368024765,-0.011971496862306363,-0.24444615690680654
4.629,55.000009999999996,17.56,0.24631557592872078,0.11013983358417745,-0.1912860625443033
8.629000000000001,55.000009999999996,21.560000000000002,0.5485312544562346,0.1159294189125526,-0.29366568244909713
4.629,55.000009999999996,21.560000000000002,-0.18367343014420756,0.2533981480575709,0.07748681370779303
-7.3709999999999996,55.000009999999996,21.560000000000002,0.027755154457129172,-0.08461376796792264,-0.030260729854027224
-11.371,55.000009999999996,21.560000000000002,-0.2641534142405533,-0.05223809054780704,-0.14803443977246117
-15.371000000000002,55.000009999999996,21.560000000000002,-0.2801312453156929,-0.027554885519742722,-0.2326242549872362
-19.371,55.000009999999996,21.560000000000002,-0.3266882283460171,0.019584831937236036,-0.19134380883464447
-23.371000000000002,55.000009999999996,21.560000000000002,0.22761503445443143,-0.07938283329448348,0.08535113032451663
-27.371000000000002,55.000009999999996,21.560000000000002,-0.02299392788122634,-0.12120371691423104,-0.15886124491458903
-27.371000000000002,55.000009999999996,25.56,-0.14043462955579122,0.18393386431753145,-0.37403635842347127
-23.371000000000002,55.000009999999996,25.56,-0.2028392005109403,-0.09575745766200461,-0.2348857490988593
-19.371,55.000009999999996,25.56,0.21850990114731517,0.2637643056336514,0.11268519206096561
-15.371000000000002,55.000009999999996,25.56,-0.36070309192412775,-0.22629880639536415,-0.12392415062435769
-11.371,55.000009999999996,25.56,-0.35608086819752804,-0.09841595395473357,0.2056798249182007
-7.3709999999999996,55.000009999999996,25.56,-0.09565381419057994,0.012313563917787373,0.26811064388386485
-3.3710000000000004,55.000009999999996,25.56,-0.0162281102446607,0.19151887457858896,0.01091309654464856
0.6289999999999997,55.000009999999996,29.56,-0.026460268185091174,-0.3665874135617142,-0.03121369282952091
-7.3709999999999996,55.000009999999996,29.56,-0.025063159424246195,-0.24695217623039722,0.7164337121332826
4.629,60.00001,1.5599999999999996,1.0240179292121812,-0.059171716486161596,-0.2099553797770215
0.6289999999999997,60.00001,1.5599999999999996,0.9167106579790474,0.13484300584455378,-0.07939229562595185
-3.3710000000000004,60.00001,1.5599999999999996,0.8830473434387407,-0.03406913184703653,-0.15845372859736861
-7.3709999999999996,60.00001,1.5599999999999996,0.7742031655418397,0.08075578211378387,0.04883724326683603
-11.371,60.00001,1.5599999999999996,0.6268002342006196,0.13110417691880594,-0.053271870664295395
-15.371000000000002,60.00001,1.5599999999999996,0.541955357884974,0.0018789421895371028,-0.2737900752138589
-19.371,60.00001,1.5599999999999996,0.5108642365006383,-0.027199377309494732,0.16845097192081382
-23.371000000000002,60.00001,1.5599999999999996,0.37817210951560654,-0.0005185325643197736,0.10460444517338408
-27.371000000000002,60.00001,1.5599999999999996,0.560072138891271,-0.06668264862231821,-0.2262316913819118
-27.371000000000002,60.00001,-2.4400000000000004,0.2064071341533691,0.10163641079231622,-0.06831564738376816
-23.371000000000002,60.00001,-2.4400000000000004,0.3649865515974682,-0.02188109950401751,-0.25994516235956777
-19.371,60.00001,-2.4400000000000004,0.3731558001622587,0.003214712394072894,-0.2064870285374526
-15.371000000000002,60.00001,-2.4400000000000004,0.23244254786559948,0.18544373462362485,0.028382421712522254
-11.371,60.00001,-2.4400000000000004,0.2578689449571514,0.19961894141252712,-0.02095781589435408
-7.3709999999999996,60.00001,-2.4400000000000004,0.5069950969817411,-0.11703239832759893,-0.08338140890366275
-3.3710000000000004,60.00001,-2.4400000000000004,0.6240477764012418,0.02244043124232098,-0.018625152925391686
0.6289999999999997,60.00001,-2.4400000000000004,0.6140017355392935,-0.031926349591471226,-0.14527425963866414
0.6289999999999997,60.00001,-6.4399999999999995,0.26769996859059564,-0.05820767925189818,-0.14505936690112076
-3.3710000000000004,60.00001,-6.4399999999999995,0.2458183841494363,0.08695913626149965,-0.12664084693668476
-7.3709999999999996,60.00001,-6.4399999999999995,0.18197252640822226,-0.1022220357743131,-0.05850082308197779
-11.371,60.00001,-6.4399999999999995,0.07866028894590871,0.03835704191109679,-0.01458836559167509
-15.371000000000002,60.00001,-6.4399999999999995,0.1549656730161969,0.12602902967234764,0.06979235751321256
-19.371,60.00001,-6.4399999999999995,0.281934640893608,0.0570258608583063,-0.11838427268770768
-23.371000000000002,60.00001,-6.4399999999999995,0.21342754946971354,-0.16880620832507853,-0.2441000792663045
-27.371000000000002,60.00001,-6.4399999999999995,-0.025866524701773086,0.020445430412474597,0.23943032219051752
-27.371000000000002,60.00001,-10.440000000000001,-0.22362261204417755,0.02165271645339084,0.20473722856271526
-23.371000000000002,60.00001,-10.440000000000001,0.02965013675992889,-0.010597160464176358,-0.2141526448806469
-15.371000000000002,60.00001,-10.440000000000001,0.0758252086405703,0.033273867351113484,-0.08324883783119297
-11.371,60.00001,-10.440000000000001,-0.058279131897787106,0.100772233668589,-0.11219918127996775
-7.3709999999999996,60.00001,-10.440000000000001,0.024252275543087953,-0.08196462599187049,-0.06392979289923939
-3.3710000000000004,60.00001,-10.440000000000001,0.10202984121732567,-0.028252382642135476,-0.29395548498601654
0.6289999999999997,60.00001,-10.440000000000001,0.025353742802392,-0.07889010545004682,0.013444391155612023
4.629,60.00001,-14.440000000000003,-0.06206428796449483,-0.3679531706107242,-0.06069596833539748
0.6289999999999997,60.00001,-14.440000000000003,-0.06449188534849437,-0.18438843400218063,-0.19117880891474093
-3.3710000000000004,60.00001,-14.440000000000003,-0.1522480889672287,-0.06138202663671377,-0.1618460053787102
-7.3709999999999996,60.00001,-14.440000000000003,0.0002450262974157402,-0.10563555855941376,0.0803296583277463
-11.371,60.00001,-14.440000000000003,-0.14291530258182528,0.0909873588983312,0.09485437345278791
-15.371000000000002,60.00001,-14.440000000000003,-0.13925043839916051,0.1211217556124411,0.02579235724539941
-19.371,60.00001,-14.440000000000003,0.10903203094785041,0.0554505439839148,-0.009964387864905278
-23.371000000000002,60.00001,-14.440000000000003,-0.19420923682118563,0.0679160040122917,-0.09652183803543768
-27.371000000000002,60.00001,-14.440000000000003,-0.2159358813665635,0.02498528260109767,0.251766282501098
-27.371000000000002,60.00001,-18.44,0.2306239822575995,-0.11924534831965206,-0.11002704331148361
-23.371000000000002,60.00001,-18.44,-0.17010623898894295,0.034167486464842245,0.048833404336939834
-19.371,60.00001,-18.44,0.11331699455818522,-0.12022094483882251,0.20661508720414834
-15.371000000000002,60.00001,-18.44,-0.12837033802043096,0.057214094837465534,-0.07775012270060944
-11.371,60.00001,-18.44,-0.09890309783876505,0.019259119338455033,0.16758626849238678
-7.3709999999999996,60.00001,-18.44,-0.006206257562149653,-0.030099602103794698,0.08445435996500827
-3.3710000000000004,60.00001,-18.44,0.05209871743548228,-0.003201465607738374,-0.08182222687533325
0.6289999999999997,60.00001,-18.44,-0.01964367777735898,0.034430140587737856,0.1009546596147326
4.629,60.00001,-18.44,-0.0087972571477999,0.11080873606345021,0.0608598412951078
4.629,60.00001,5.56,1.3830462780436727,0.11941377971950162,-0.012561660118969031
0.6289999999999997,60.00001,5.56,-0.9401441059763538,0.03621796333997951,0.21002819084540297
-3.3710000000000004,60.00001,5.56,-1.106260692694018,-0.11717258641440464,0.18992279462991674
-7.3709999999999996,60.00001,5.56,-1.0882079432381926,-0.23667880263219532,0.18540854621130892
-11.371,60.00001,5.56,-1.211659302702961,-0.12464626211180496,0.4308246690190601
-15.371000000000002,60.00001,5.56,-1.4809466358718022,-0.2638672937340991,0.40001356975878505
-19.371,60.00001,5.56,-1.644149830015476,-0.29918979253927835,0.5064535630360814
-23.371000000000002,60.00001,5.56,-1.6390988350574731,-0.4425524804323344,0.21551316525547787
-27.371000000000002,60.00001,5.56,-1.6829597475130298,-0.1221075513583858,0.4906980873986569
-27.371000000000002,60.00001,9.559999999999999,-1.2957373547365536,-0.2909431831846443,0.5727637216638694
-23.371000000000002,60.00001,9.559999999999999,-1.6291548564894898,-0.33521673653674755,0.07726108061460804
-19.371,60.00001,9.559999999999999,-1.4983553002957088,-0.21688373328067057,0.31929895408326703
-15.371000000000002,60.00001,9.559999999999999,-1.3004098006557747,-0.627559830633817,0.25324091097453716
-11.371,60.00001,9.559999999999999,-0.9619123728057455,-0.13136106024523864,0.34380826800980213
-3.3710000000000004,60.00001,9.559999999999999,-0.7914440336284676,-0.017470255935359003,0.1150657302041759
0.6289999999999997,60.00001,9.559999999999999,-0.6626449789106807,0.021646648351592024,0.013151920973029224
4.629,60.00001,9.559999999999999,-0.5617725038106407,-0.14960328800316391,0.18454148123664207
4.629,60.00001,13.56,-0.5353653140278667,-0.13052364359665836,0.30166419466940986
0.6289999999999997,60.00001,13.56,0.7613789268306415,0.48969820951759724,-0.3231513613126291
-3.3710000000000004,60.00001,13.56,0.6234542248566968,0.3057494385041992,-0.22045498442889166
-7.3709999999999996,60.00001,13.56,0.31696567204757,0.254802418756539,-0.046678909527481105
-11.371,60.00001,13.56,0.21923946329095167,-0.025749895266036216,-0.030515178372275686
-15.371000000000002,60.00001,13.56,0.06494416235286182,-0.028875457432608886,0.09666609273628057
-19.371,60.00001,13.56,-0.07586700889084808,0.1417296810000468,-0.00016633000365362527
-23.371000000000002,60.00001,13.56,-0.3022369701822236,-0.06204240570603092,-0.3280415872790654
-27.371000000000002,60.00001,13.56,0.270827068874574,0.05888543982611738,-0.16676456495285374
-27.371000000000002,60.00001,17.56,0.07675904764596342,0.14007900552314156,-0.0014997483985021431
-23.371000000000002,60.00001,17.56,0.11601551483528816,-0.02550130219419744,-0.12336472030766016
-19.371,60.00001,17.56,-0.24996354872157123,-0.19776510434684758,-0.16951045791150227
-15.371000000000002,60.00001,17.56,0.08561962643303944,-0.24829304735104474,0.12590031997060797
-11.371,60.00001,17.56,0.10190174359342441,-0.06133717760313795,-0.09363101673210833
-7.3709999999999996,60.00001,17.56,0.35315154859353604,0.15142824180612857,-0.19354548037845282
-11.371,60.00001,21.560000000000002,0.6218737486285209,-0.049353817081343454,-0.1271314940323745
-15.371000000000002,60.00001,21.560000000000002,0.3622335775692792,0.15237056011220274,-0.006883475289155838
-19.371,60.00001,21.560000000000002,0.14115956515234618,0.3280776958552667,0.1681515006379905
-23.371000000000002,60.00001,21.560000000000002,0.19228548405754164,0.15275905332591266,-0.0318576050272093
-27.371000000000002,60.00001,21.560000000000002,0.038344557467545615,0.23056294263578136,-0.11531994845405263
-27.371000000000002,60.00001,25.56,-0.403764606155671,-0.18708587604906457,-0.06371746414652046
-23.371000000000002,60.00001,25.56,0.18941505588270235,0.07167061595277913,0.10912161745769422
-19.371,60.00001,25.56,0.12571583147319154,-0.2597396307726041,0.16990560054602477
-15.371000000000002,60.00001,25.56,-0.2360347587138073,-0.3567742756114156,0.19844540900167684
-7.3709999999999996,60.00001,25.56,0.8352515011410183,-0.27085524646696113,0.3195237071361129
-15.371000000000002,60.00001,25.56,-0.21498123602456676,-0.5154722345120821,0.3497585414474397
-23.371000000000002,60.00001,25.56,-0.06454556985526771,-0.12487116159519696,0.21083753739215838
-27.371000000000002,60.00001,25.56,-0.4035563903219297,-0.38798938370324665,-0.12057260915256107
