AX,AY,AZ,EX,EY,EZ
-3.3710000000000004,15.0,1.5599999999999996,0.16823392757154415,-0.035924240402548935,0.06800910424388795
-7.3709999999999996,15.0,1.5599999999999996,0.06970039429304575,-0.07415711378438994,-0.013444149686228646
-11.371,15.0,1.5599999999999996,0.11023939766834912,-0.29872529095436307,0.01963981267338738
-15.371000000000002,15.0,1.5599999999999996,0.28855339117019596,-0.38835219397289067,0.34275266420797784
-19.371,15.0,1.5599999999999996,0.39205760526184463,-0.09363084370755115,0.4785498893855142
-23.371000000000002,15.0,1.5599999999999996,0.03468641317611043,-0.07444914100260269,0.8317907276051612
-27.371000000000002,15.0,1.5599999999999996,-0.017543461460328702,-0.026500075540719648,0.2519091426565645
-27.371000000000002,15.0,-2.4400000000000004,-0.164564045569765,-0.11466750185210595,0.14796130094606452
-23.371000000000002,15.0,-2.4400000000000004,-0.12449697387688641,0.05259706942830067,0.1407902451654619
-19.371,15.0,-2.4400000000000004,0.17166252206168575,-0.0948224651673768,0.05076248835578501
-15.371000000000002,15.0,-2.4400000000000004,-0.021450349812832115,0.027311864448678613,-0.05676470712575876
-11.371,15.0,-2.4400000000000004,-0.1245760653918182,0.1230844312264362,-0.4497790677284716
-7.3709999999999996,15.0,-2.4400000000000004,0.019112527709111427,0.101523636373832,-0.20807400028666767
-7.3709999999999996,15.0,-6.4399999999999995,0.2733911558832153,-0.3596623892204609,-0.05989064035595848
-11.371,15.0,-6.4399999999999995,0.056149650558551256,-0.1049520676953436,-0.26192728401085164
-15.371000000000002,15.0,-6.4399999999999995,-0.09176037949779892,0.19855043116437376,-0.260807832689508
-19.371,15.0,-6.4399999999999995,0.0483836524953124,0.13090696105053923,0.13386816018732817
-23.371000000000002,15.0,-6.4399999999999995,0.13830145478544997,0.042619061621798626,0.10334026571934274
-27.371000000000002,15.0,-6.4399999999999995,-0.047424922877919995,0.02079680505923387,-0.1615889914603985
-27.371000000000002,15.0,-10.440000000000001,-0.4951666568300317,0.013055700543190829,0.05165742434779519
-23.371000000000002,15.0,-10.440000000000001,0.0012890334121551383,0.04036832113009925,-0.400736211147551
-15.371000000000002,15.0,-10.440000000000001,0.26259349316918035,-0.21040288923905026,0.17900299395464114
-11.371,15.0,-10.440000000000001,0.19089061343853797,-0.47365207450257574,0.1410378049825134
-7.3709999999999996,15.0,-10.440000000000001,0.21035837596383444,-0.5718474985336092,0.31679822706289773
-3.3710000000000004,15.0,-10.440000000000001,-0.37234704483624786,0.11455762436581585,0.21833182972360032
0.6289999999999997,15.0,-10.440000000000001,-0.16646730147094058,0.020772158076590164,0.23595895170642756
4.629,15.0,-14.440000000000003,0.44415692910846594,0.5252073473943519,-0.7335132325225924
0.6289999999999997,15.0,-14.440000000000003,-0.48746092401458774,0.6110009962236151,-0.2012469211432305
-3.3710000000000004,15.0,-14.440000000000003,-0.4595314831378053,0.43343808620397994,0.08296145832695223
-7.3709999999999996,15.0,-14.440000000000003,-0.01794093612022818,-1.2639639771022697,0.8609138634480762
-11.371,15.0,-14.440000000000003,0.18194547566577346,-0.6900965502245476,0.47477786422265855
-15.371000000000002,15.0,-14.440000000000003,0.2380791812446631,-0.11476229205398814,0.1915249281459308
-19.371,15.0,-14.440000000000003,0.4529997712462791,0.19920884248985082,-0.43926817830650666
-23.371000000000002,15.0,-14.440000000000003,-0.14473542001517403,0.4814219892252447,-0.9592136292982556
-27.371000000000002,15.0,-14.440000000000003,0.2343689639700608,-0.08999246947642703,-0.6335441163868805
-27.371000000000002,15.0,-18.44,0.03959028464105008,0.019957926055719222,-0.2925897505036523
-23.371000000000002,15.0,-18.44,0.44960651062349033,0.24337704221798484,-0.4172741792753232
-19.371,15.0,-18.44,0.44065827765168153,0.354707738650914,-0.29236171971970815
-15.371000000000002,15.0,-18.44,0.698873854783863,-0.00372653771350262,0.17451774411053056
-11.371,15.0,-18.44,0.30250210144620593,-0.27329475898471844,0.32623084374096
-7.3709999999999996,15.0,-18.44,0.15553999985617184,-0.5767549326268245,0.8670468039094714
-3.3710000000000004,15.0,-18.44,-0.45390718773835187,0.18193803868544467,0.689108639396735
4.629,15.0,5.56,0.1952174270767184,0.09422722771262604,0.1283424883972692
0.6289999999999997,15.0,5.56,0.1766969848725819,-0.267244264472713,-0.0230329116435099
-3.3710000000000004,15.0,5.56,0.09931115863241885,-0.1526164637803501,0.23766988837134184
-7.3709999999999996,15.0,5.56,0.09351212024748812,-0.15672632043580992,0.186508531653988
-11.371,15.0,5.56,0.11565610527615178,-0.16994042632406947,0.14491480208591173
-15.371000000000002,15.0,5.56,0.006606249401333586,-0.10884505183075543,0.4305638643658946
-19.371,15.0,5.56,0.19090683776719908,-0.09578815801397911,0.2200200639344438
-23.371000000000002,15.0,5.56,-0.2160902033913059,0.3273573642198685,0.5918776524582379
-27.371000000000002,15.0,5.56,-0.30598285243142453,0.17691649745023297,0.07857698856512801
-27.371000000000002,15.0,9.559999999999999,-0.0993089505023026,-0.017839084019052875,0.4352492118435657
-23.371000000000002,15.0,9.559999999999999,0.007769558876036253,0.021651193806482283,0.04764738255743431
-19.371,15.0,9.559999999999999,-0.00920932027489163,-0.043879489891218704,-0.3689904244829123
-15.371000000000002,15.0,9.559999999999999,0.059198043055583294,-0.12931765011550134,-0.37066709521706775
-11.371,15.0,9.559999999999999,0.09018489037163069,-0.18857391492520803,-0.4789594110829708
-7.3709999999999996,15.0,9.559999999999999,0.01795786755940665,-0.147093669802284,-0.0332697011327536
-3.3710000000000004,15.0,9.559999999999999,0.04697450529783792,0.051170662197655425,0.24492297474422928
0.6289999999999997,15.0,9.559999999999999,0.09042771688047013,0.02241204489578097,0.18622033891090364
-3.3710000000000004,15.0,13.56,-0.1016028657484444,0.29182803009321356,0.08457782709054562
-7.3709999999999996,15.0,13.56,0.010533972743179132,0.2377447154842116,-0.14450503255797886
-11.371,15.0,13.56,0.12104780675784022,-0.022100095021546085,-0.23515916961706906
-15.371000000000002,15.0,13.56,0.15934107969788613,-0.006278250062061175,-0.12568760771635434
-19.371,15.0,13.56,0.059765178061291224,0.0032602200769532574,-0.7564903560132868
-23.371000000000002,15.0,13.56,0.17373187448768146,-0.16586018669031422,-0.12127485157961138
-27.371000000000002,15.0,13.56,0.12086077096858383,-0.1175045086130172,0.5288082881682088
-27.371000000000002,15.0,17.56,0.4241037794365188,-0.12564722556170083,1.136479779119917
-23.371000000000002,15.0,17.56,0.08139168642797845,-0.1054575976501465,-0.2915124834382263
-19.371,15.0,17.56,-0.017970962300753457,-0.03161485677673492,-0.725663730557248
-15.371000000000002,15.0,17.56,-0.07717457710539055,0.01751951445975175,-0.6978364497553526
-11.371,15.0,17.56,0.2703172277326471,0.16251159966403084,-0.40075348135968497
-7.3709999999999996,15.0,17.56,-0.1110652514382332,0.26609479564749516,-0.12418831218404397
-3.3710000000000004,15.0,17.56,-0.02262525002200283,0.13516534442351846,0.2308392004216661
0.6289999999999997,15.0,17.56,0.05150287261620479,-0.523711047939493,0.1452971043388776
4.629,15.0,17.56,0.09066018877003888,-0.5623682387402434,-0.07649141608105786
-11.371,15.0,21.560000000000002,-0.22301724400665135,0.03758954657938074,-0.2867433845806108
-15.371000000000002,15.0,21.560000000000002,0.0005026310352457264,-0.0247888537047658,-0.41967797070603524
-19.371,15.0,21.560000000000002,-0.11115171164876314,-0.1252266941140473,-0.32991504237853825
-23.371000000000002,15.0,21.560000000000002,0.10896251013802205,-0.2264303559027625,-0.235977513701853
-27.371000000000002,15.0,21.560000000000002,-0.031242524681668327,-0.09463662540176165,0.23874261934767188
-27.371000000000002,15.0,25.56,0.1930495227132123,-0.42871900858529877,0.38791479352091596
-23.371000000000002,15.0,25.56,0.03029142350103875,0.14186090366938298,0.6397480721860804
-15.371000000000002,15.0,25.56,0.1927273681883862,0.24765987219629026,0.2461198319793606
-11.371,15.0,25.56,-0.0038823352473293937,0.30294450216208635,-0.019707909284563674
0.6289999999999997,20.0,1.5599999999999996,0.01616125315924699,-0.06312175367751693,0.005898681360580471
-3.3710000000000004,20.0,1.5599999999999996,-0.06086307413451647,0.07372407054384578,0.07155906232317877
-7.3709999999999996,20.0,1.5599999999999996,-0.046940392194758096,0.05747599213393462,0.15171655292590125
-11.371,20.0,1.5599999999999996,-0.1006569583717698,0.009221980921850226,-0.060585072507224336
-15.371000000000002,20.0,1.5599999999999996,-0.20933508056845962,0.05464033743461938,-0.1136293486543774
-19.371,20.0,1.5599999999999996,0.058620434943232325,0.047148388765785865,0.19328062184853362
-23.371000000000002,20.0,1.5599999999999996,0.1729929492979121,-0.08941987254197648,0.049785853461156715
-27.371000000000002,20.0,1.5599999999999996,0.21315973968531465,-0.0392676091320765,-0.11648633080907356
-27.371000000000002,20.0,-2.4400000000000004,-0.07803372780939566,0.07614059498049497,-0.15035449792376865
-23.371000000000002,20.0,-2.4400000000000004,-0.13737258068482472,0.09844356791423037,-0.027709316345750357
-19.371,20.0,-2.4400000000000004,-0.07965901914121776,0.11584538631753127,-0.029616353263631212
-15.371000000000002,20.0,-2.4400000000000004,-0.04683206090573544,0.048283733482015756,-0.12674133579241853
-11.371,20.0,-2.4400000000000004,-0.02920409262244239,-0.014671035797508836,-0.14648569713509585
-7.3709999999999996,20.0,-2.4400000000000004,-0.08738325763968657,0.11865877760203758,0.016835593489314404
-3.3710000000000004,20.0,-2.4400000000000004,0.04162629192333983,0.18576800344982103,0.15977757649065505
0.6289999999999997,20.0,-2.4400000000000004,-0.015103622953166473,0.277429360610687,0.028566105973829026
4.629,20.0,-2.4400000000000004,-0.12435621043333824,0.2613069258953077,-0.13410299923355407
8.629000000000001,20.0,-2.4400000000000004,-0.20716280515098578,0.10255609855458203,-0.2431030390694089
12.629000000000001,20.0,-2.4400000000000004,-0.34531950329504263,0.04231547894903431,-0.30036493264645747
16.628999999999998,20.0,-2.4400000000000004,-0.4230358485401292,0.25994540047545034,-0.28202827422705024
16.628999999999998,20.0,-6.4399999999999995,0.05771387741121681,0.0880772184669032,0.2365921116826819
12.629000000000001,20.0,-6.4399999999999995,-0.053895231552829326,-0.026167613242747412,0.23454164554745915
8.629000000000001,20.0,-6.4399999999999995,-0.022471178423590088,-0.0011989981814647388,0.32392319899071376
4.629,20.0,-6.4399999999999995,-0.013855737996213216,-0.08981981674518746,0.147724588104986
0.6289999999999997,20.0,-6.4399999999999995,0.06513009108827794,-0.11507942163412332,0.09432346924629909
-7.3709999999999996,20.0,-6.4399999999999995,0.010569823275416446,-0.03823356596282246,0.00023193767660911746
-11.371,20.0,-6.4399999999999995,-0.151555622961147,0.2824741631043043,-0.26849620810706354
-15.371000000000002,20.0,-6.4399999999999995,-0.36924381440097964,0.5283274416865019,-0.3636543664605224
-19.371,20.0,-6.4399999999999995,-0.17812081965043747,0.3727878471792401,-0.3355449453901316
-23.371000000000002,20.0,-6.4399999999999995,-0.17993746538922384,0.23518728387591503,-0.2797466080966732
-27.371000000000002,20.0,-6.4399999999999995,-0.08265755053658563,0.15262070143053086,-0.1610610255683098
-27.371000000000002,20.0,-10.440000000000001,0.21333335910837525,-0.2916953309921533,0.44900815969860786
-23.371000000000002,20.0,-10.440000000000001,-0.16336119194555465,0.18319096860832385,0.007550241961290505
-15.371000000000002,20.0,-10.440000000000001,-0.31202834849440586,0.46511106365633437,-0.4845613000397375
-11.371,20.0,-10.440000000000001,-0.13837618692388864,0.1957960427016764,-0.23217194401026764
-7.3709999999999996,20.0,-10.440000000000001,-0.4339771513771101,-0.10245265398009795,0.26565780950844053
-3.3710000000000004,20.0,-10.440000000000001,-0.05138675594296843,-0.2093542230924228,0.07038129506584112
0.6289999999999997,20.0,-10.440000000000001,-0.06211499761551997,-0.2780315505974462,0.2280169225389983
4.629,20.0,-10.440000000000001,-0.24465044560073346,-0.3526176914409457,0.1615170369256791
8.629000000000001,20.0,-10.440000000000001,0.08163094493503914,-0.0041791797417423115,0.2378155561458012
12.629000000000001,20.0,-14.440000000000003,0.014748119856562714,-0.1738819926914048,0.11906014947238863
8.629000000000001,20.0,-14.440000000000003,-0.5415557717787247,-0.15865851442815881,-0.43835657919987503
4.629,20.0,-14.440000000000003,-0.039465730337881824,0.0020608179410935845,-0.24344318374189267
0.6289999999999997,20.0,-14.440000000000003,-0.7464611986843506,-0.06630720442689364,-0.2308927914771719
-3.3710000000000004,20.0,-14.440000000000003,-0.8684326895209273,-0.08120995755576399,0.04200435821223869
-7.3709999999999996,20.0,-14.440000000000003,-0.8475251038584125,-0.3567978515520043,0.37256964861749897
-11.371,20.0,-14.440000000000003,-0.7324349735975788,-0.1575370555910227,0.17257225554170863
-15.371000000000002,20.0,-14.440000000000003,-0.9498212877694673,0.009695330338221897,0.14710961123495236
-19.371,20.0,-14.440000000000003,-0.8869785059249208,-0.009155597573151653,0.523027970374168
-23.371000000000002,20.0,-14.440000000000003,-0.6939641596156343,-0.19390577269163822,0.35680245867338867
-27.371000000000002,20.0,-14.440000000000003,-0.7147257319575384,-0.39293931427568096,0.8830437771868094
-27.371000000000002,20.0,-18.44,-0.5646626885405459,-0.29990472795760614,0.2794573538584699
-23.371000000000002,20.0,-18.44,-0.6744336648771054,-0.2735823762329753,0.3738104455858593
-19.371,20.0,-18.44,0.224817673933711,-0.5586663374320122,0.008629477888771886
-15.371000000000002,20.0,-18.44,0.08264553455971935,-0.37424041795631746,-0.2621853095229554
-11.371,20.0,-18.44,-0.24751286635799064,-0.055734867391604714,-0.33217247391497673
-7.3709999999999996,20.0,-18.44,-0.2366579547837505,-0.11609483965540623,-0.15176694882304553
-3.3710000000000004,20.0,-18.44,-0.3642416078109015,0.16497528527775196,-0.40205485139905295
0.6289999999999997,20.0,-18.44,-0.10777711676235868,0.46916866568972315,-0.9652549334890459
4.629,20.0,-18.44,-0.06700036210068629,0.3507706994160448,-0.5150693263942074
8.629000000000001,20.0,-18.44,0.36519372195171623,-0.49655700293610994,-0.348583221162152
0.6289999999999997,20.0,5.56,-0.026435987468304,-0.1289781713204735,0.1666442014165534
-3.3710000000000004,20.0,5.56,-0.16163427004450975,-0.02691058769031529,-0.18546153045648078
-7.3709999999999996,20.0,5.56,-0.21444921873662592,0.04123615324988228,0.17288491287630742
-11.371,20.0,5.56,-0.1338613080064166,0.030444398422485586,-0.0746729014180672
-15.371000000000002,20.0,5.56,-0.2514505621183022,0.021058108558127953,0.3285902981174857
-19.371,20.0,5.56,-0.21396065381116547,0.10344935547274003,0.09044219856503416
-23.371000000000002,20.0,5.56,-0.08937862612483638,0.17889375841625144,0.5422517485525524
-27.371000000000002,20.0,5.56,-0.2653529367542762,0.19871630703034437,-0.3764647820848052
-27.371000000000002,20.0,9.559999999999999,-0.30058111593248005,0.24487640858894544,0.015330423646182229
-23.371000000000002,20.0,9.559999999999999,-0.34296259869539547,0.18607049847318702,-0.3846147519609704
-19.371,20.0,9.559999999999999,-0.25754629440783716,0.013916454521489818,-0.11842251350375962
-15.371000000000002,20.0,9.559999999999999,-0.22187828069980264,0.007940882350415679,0.004071363802119615
-11.371,20.0,9.559999999999999,-0.19006581260001543,0.03380175215729753,0.10493297281722672
-7.3709999999999996,20.0,9.559999999999999,-0.21437753235066526,0.03481830189984436,0.3578900687754689
-3.3710000000000004,20.0,9.559999999999999,-0.18403877261483764,0.08875199627106922,0.1961659235485587
0.6289999999999997,20.0,9.559999999999999,-0.1352295141535398,0.15493841466195923,-0.07714169612666674
4.629,20.0,9.559999999999999,0.1048209928131285,0.43834920747530537,-0.08038737436625518
4.629,20.0,13.56,-0.09346996159456979,0.16664070047310298,-0.2682569703398835
-3.3710000000000004,20.0,13.56,-0.1906999639722809,0.32904731709221813,-0.12103064149865117
-7.3709999999999996,20.0,13.56,-0.23723387213270553,0.2923089586229638,0.15462794191188345
-11.371,20.0,13.56,-0.23809762692401648,0.07842859560855397,0.045082917601874106
-15.371000000000002,20.0,13.56,-0.14878425223530944,-0.13947685928507036,0.16008147310471732
-19.371,20.0,13.56,-0.14905008245390816,0.09723297744169968,-0.01523755619829148
-23.371000000000002,20.0,13.56,-0.19375198695338325,0.061305157260893584,-0.34330270933806695
-27.371000000000002,20.0,13.56,-0.19374680633529873,0.10390994583008573,-0.40601956076902757
-27.371000000000002,20.0,17.56,-0.1366832237437554,0.13902130527473355,-0.3331168170267282
-23.371000000000002,20.0,17.56,-0.008227157462625811,0.0680412132215702,-0.13187029139263423
-19.371,20.0,17.56,-0.07658893839655179,-0.06880963863672429,-0.44197849545861007
-15.371000000000002,20.0,17.56,0.042430381021776875,-0.01901631985081753,0.018333471536989554
-11.371,20.0,17.56,-0.24376215901135145,0.13091711595435984,-0.22300727640820056
-7.3709999999999996,20.0,17.56,-0.344242537314024,0.28307727517455084,0.05866877695813594
-3.3710000000000004,20.0,17.56,-0.26800029340991044,0.0020506116217455794,-0.012540756088082194
0.6289999999999997,20.0,17.56,-0.27970500953262145,-0.4811715408800654,0.17502959680863878
-3.3710000000000004,20.0,21.560000000000002,-0.2648269421144059,-0.21990323956711522,0.04911475091319978
-11.371,20.0,21.560000000000002,-0.4771421893832728,0.11855430031595948,-0.03678295407219395
-15.371000000000002,20.0,21.560000000000002,-0.4203368342985264,-0.033432304411940006,-0.23081687464374528
-19.371,20.0,21.560000000000002,-0.2730915901536374,-0.15226595901771667,-0.2726206559382868
-23.371000000000002,20.0,21.560000000000002,-0.14444418743687626,-0.20915352736712856,-0.560519196846053
-27.371000000000002,20.0,21.560000000000002,-0.2086134223519165,0.18781005878555634,-0.4412766103473506
-27.371000000000002,20.0,25.56,0.0005360827136591251,-0.08646468042927125,0.4560671943439676
-23.371000000000002,20.0,25.56,-0.29499198686757655,0.10816553876801249,-0.09104333942447917
-19.371,20.0,25.56,-0.3124797578188482,0.01436986022941844,-0.4460185934071159
-15.371000000000002,20.0,25.56,-0.5286940035460458,0.12480574101581265,-0.4832976826356583
-11.371,20.0,25.56,-0.4440035558989863,0.3451968005428685,-0.1572154328084996
0.6289999999999997,25.0,1.5599999999999996,-0.05134300314436069,-0.11193835827373877,0.3392561352996343
-3.3710000000000004,25.0,1.5599999999999996,-0.16894170778021383,-0.07264915165942076,-0.04041899505078661
-7.3709999999999996,25.0,1.5599999999999996,0.9234630431177032,-0.19340588322982466,0.13287696201107757
-11.371,25.0,1.5599999999999996,0.1719064250111424,-0.0692458913745142,0.02913273099573732
-15.371000000000002,25.0,1.5599999999999996,-0.054282601970370714,0.006128746373490479,0.09857058846272915
-19.371,25.0,1.5599999999999996,0.2567753930803357,-0.035024518394943804,-0.029690629477474584
-23.371000000000002,25.0,1.5599999999999996,0.3014605945177884,-0.07832457194095199,-0.13761017121538266
-27.371000000000002,25.0,1.5599999999999996,0.3731308637160924,-0.0024711688149936517,-0.24470120244299842
-27.371000000000002,25.0,-2.4400000000000004,0.4697352864831583,-0.11757044007121298,-0.17363845785403065
-23.371000000000002,25.0,-2.4400000000000004,0.3467234418834453,-0.07741109454805772,-0.19569125181511937
-19.371,25.0,-2.4400000000000004,0.33763379072458133,-0.06511084245073295,-0.13262057118955395
-15.371000000000002,25.0,-2.4400000000000004,0.15371019106397987,-0.15393573796364524,0.02144838129367055
-11.371,25.0,-2.4400000000000004,0.27554380891309793,-0.15300457360454267,-0.17275362614775913
-7.3709999999999996,25.0,-2.4400000000000004,0.26379085006252023,-0.12823981277436114,-0.12419150902340803
-3.3710000000000004,25.0,-2.4400000000000004,0.26900438958363665,-0.07425869430525145,-0.1897669844578398
0.6289999999999997,25.0,-2.4400000000000004,0.23003370936395817,0.018965235376489087,-0.19321450649393834
0.6289999999999997,25.0,-2.4400000000000004,0.23272681939930373,0.02740038257811883,-0.1803357759498414
4.629,25.0,-2.4400000000000004,0.07779547476685321,-0.03820999655698154,-0.27464664043321263
8.629000000000001,25.0,-2.4400000000000004,0.0564549002651335,-0.25994746475700437,0.06688272780275284
8.629000000000001,25.0,-6.4399999999999995,0.07267085434637804,-0.24119960686777575,-0.33321522371704826
4.629,25.0,-6.4399999999999995,-0.029682134040307298,-0.13252005387526244,-0.21340952116928325
0.6289999999999997,25.0,-6.4399999999999995,-0.1577468308395058,0.02671409381202472,-0.23019516941220064
-3.3710000000000004,25.0,-6.4399999999999995,-0.04828676392624326,0.01290546314369756,-0.2185085567709244
-7.3709999999999996,25.0,-6.4399999999999995,-0.2005346841569694,0.08827602757569553,-0.3563188899766423
-11.371,25.0,-6.4399999999999995,0.4073758071344191,-0.23483130356831694,-0.38263565584887027
-15.371000000000002,25.0,-6.4399999999999995,-0.11044182511383005,-0.017585236522010828,-0.06525118136569141
-19.371,25.0,-6.4399999999999995,0.05403617896280466,0.03235943071342451,-0.03047505513279203
-23.371000000000002,25.0,-6.4399999999999995,-0.29474675215515056,0.10851216173059508,0.20685710521630984
-27.371000000000002,25.0,-6.4399999999999995,0.417744647443935,-0.10913422407463069,-0.15771562496617597
-27.371000000000002,25.0,-10.440000000000001,-0.45072973356499735,0.05721947399413563,0.28183499887164953
-23.371000000000002,25.0,-10.440000000000001,-0.34764811159631037,0.09368845561033012,0.05451814774801722
-15.371000000000002,25.0,-10.440000000000001,0.14778575850694364,0.1648451437677778,-0.5300666202924825
-11.371,25.0,-10.440000000000001,-0.4052152248995633,-0.055595929292912016,0.006236984615964891
-7.3709999999999996,25.0,-10.440000000000001,0.27091331189161016,-0.07992888563861933,-0.37814208635960633
-3.3710000000000004,25.0,-10.440000000000001,0.2668102831392724,-0.16090583961668736,-0.17447698633167863
0.6289999999999997,25.0,-10.440000000000001,0.3620971601387801,-0.11874143473138976,-0.06459449350718627
4.629,25.0,-10.440000000000001,0.19553445466940178,-0.23076787156950385,-0.19228279980251228
8.629000000000001,25.0,-10.440000000000001,0.24862864367317522,-0.36504895744523536,-0.06700456557787726
12.629000000000001,25.0,-14.440000000000003,0.36948680215742186,0.20878384693165386,0.23606925401421508
8.629000000000001,25.0,-14.440000000000003,0.38470643803478616,0.03507180374267005,0.5055602508003243
4.629,25.0,-14.440000000000003,0.34757487388337416,0.37533459512419376,0.3229278330152241
0.6289999999999997,25.0,-14.440000000000003,0.3998960608765423,0.6335151479767709,0.2271421949361807
-3.3710000000000004,25.0,-14.440000000000003,0.4216367618502734,0.5558140774783504,0.472190281014212
-7.3709999999999996,25.0,-14.440000000000003,0.31841560171657346,0.12857621158106625,-0.09535603687786387
-11.371,25.0,-14.440000000000003,-0.04237366529666331,0.15999123789270375,0.2212990554810168
-15.371000000000002,25.0,-14.440000000000003,0.24650381947799171,0.26811026375471725,-0.0038978049696630768
-19.371,25.0,-14.440000000000003,0.28470716800785,0.35337588088328875,-0.11175156693586097
-23.371000000000002,25.0,-14.440000000000003,0.15703658464107928,0.40345671298022134,0.03620848586420311
-27.371000000000002,25.0,-14.440000000000003,0.383770999008165,0.20882003380340297,0.5659281650644443
-27.371000000000002,25.0,-18.44,0.6014185865055588,-0.20037401537996158,0.4366493967200846
-23.371000000000002,25.0,-18.44,0.19129336301205724,0.21992961682373857,0.407424830480424
-19.371,25.0,-18.44,0.07686586581713561,0.42025594527431154,-0.07544630107977901
-15.371000000000002,25.0,-18.44,0.086978619338271,0.424596762318058,-0.10059495106087835
-11.371,25.0,-18.44,0.1226991105862385,0.1793852343575819,0.08336766132566731
-7.3709999999999996,25.0,-18.44,0.07322551554072299,0.4313008213401637,-0.09295922000819856
-3.3710000000000004,25.0,-18.44,0.0665300114863085,0.24858310172867215,-0.18876104702417185
0.6289999999999997,25.0,-18.44,-0.0008267448912413489,0.20011730082084567,-0.1509519009289806
4.629,25.0,-18.44,0.20223216668228372,0.1943380599377431,0.012871496933414273
8.629000000000001,25.0,-18.44,0.16939812445436603,-0.10391876836212677,0.104143131832235
12.629000000000001,25.0,-18.44,0.22113250414653313,-0.015285810660337074,0.003902083038798132
0.6289999999999997,25.0,5.56,0.230681847118136,-0.15036899838440365,0.014856864260502645
-3.3710000000000004,25.0,5.56,0.15309090955930443,-0.15033279056637094,-0.3453044821909959
-7.3709999999999996,25.0,5.56,0.10520362698659691,-0.07063195499680264,0.005305779480550832
-11.371,25.0,5.56,0.1731810482456353,-0.05202056027527879,-0.18933236861327224
-15.371000000000002,25.0,5.56,0.12286226615790541,-0.02831156698966386,-0.12975068314443755
-19.371,25.0,5.56,0.24424058019930917,-0.06391832392527164,-0.10063685682976803
-23.371000000000002,25.0,5.56,0.3295729466872732,-0.061522483533388295,-0.10798773494765518
-27.371000000000002,25.0,5.56,0.3255126033942568,0.001666740418104773,-0.4062416947309952
-27.371000000000002,25.0,9.559999999999999,0.14934999489613632,0.22366833615147796,-0.11256341092920549
-23.371000000000002,25.0,9.559999999999999,0.1068349759530185,0.07385823211205067,-0.13372749646041113
-19.371,25.0,9.559999999999999,0.02632177020194526,0.053841191897174845,-0.016008047996018265
-15.371000000000002,25.0,9.559999999999999,0.021728020831354722,0.06684888923276233,0.034142510706442614
-11.371,25.0,9.559999999999999,0.22218469752402492,0.1295685023407045,0.5325987479754664
-7.3709999999999996,25.0,9.559999999999999,0.11740282783078426,-0.06528127951987983,0.06332910942650274
-3.3710000000000004,25.0,9.559999999999999,0.1500917380612407,-0.028692754726777903,-0.17663929154095245
0.6289999999999997,25.0,9.559999999999999,0.2277794731941285,-0.018954175407631668,-0.10719481939462303
4.629,25.0,13.56,0.26731341502589623,0.31314316622868543,-0.13617111324042697
0.6289999999999997,25.0,13.56,0.20612205117125915,0.06798523353911401,-0.12125868536151108
-3.3710000000000004,25.0,13.56,0.2412932031667689,0.07326659275057601,-0.1829861961545748
-7.3709999999999996,25.0,13.56,0.2733506929021218,0.08560703802427128,0.2146318711436751
-11.371,25.0,13.56,0.0862444703608245,0.023325065105150866,0.1835614724177953
-15.371000000000002,25.0,13.56,0.008567026624059504,-0.09934394804539948,-0.016760820716424374
-19.371,25.0,13.56,0.2719096711663066,0.11427119147356946,0.5150105976853864
-23.371000000000002,25.0,13.56,0.32442006625860165,0.13372585740625276,0.4602028221663418
-27.371000000000002,25.0,13.56,0.2376521289087663,0.0853236643901023,0.17949482846966458
-27.371000000000002,25.0,17.56,0.39841062780954783,0.09443913677808502,0.10882366304267727
-23.371000000000002,25.0,17.56,0.22447444433748576,-0.09473353583513422,-0.3646977565124679
-19.371,25.0,17.56,0.15597110190454233,-0.020761146393544205,-0.1629988743570579
-15.371000000000002,25.0,17.56,0.0705045511982888,0.06160105599953836,-0.17826439063302751
-11.371,25.0,17.56,0.1333987613863441,0.12829558922660134,-0.12745513184063834
-7.3709999999999996,25.0,17.56,0.16802536947636837,0.09195961239342187,-0.0735154588059242
-3.3710000000000004,25.0,17.56,0.231339554077524,-0.0051207180292278665,-0.044010149938807086
0.6289999999999997,25.0,17.56,0.3649203681757751,0.006396263338881436,0.04577520621606851
4.629,25.0,17.56,0.14762188388089093,0.18275904439895574,-0.02676910350736944
4.629,25.0,21.560000000000002,0.3314577138752408,-0.149245461578823,-0.05623791205644352
0.6289999999999997,25.0,21.560000000000002,0.7742961338300047,-0.17512319804013354,0.36364776977200336
-3.3710000000000004,25.0,21.560000000000002,0.9606626090046353,-0.021394408079677962,0.43878652963735415
-7.3709999999999996,25.0,21.560000000000002,0.1118627323572624,-0.13004788117573218,0.08636295875686512
-11.371,25.0,21.560000000000002,0.20102857963272824,0.03803772314692755,0.23367818490147713
-15.371000000000002,25.0,21.560000000000002,0.25011391438660435,-0.08435557046895248,0.20454112314714085
-19.371,25.0,21.560000000000002,0.6211852695558823,0.024010650216688134,0.5113583189561912
-23.371000000000002,25.0,21.560000000000002,0.18414957034187385,-0.28038255442109916,-0.049483205416155085
-27.371000000000002,25.0,21.560000000000002,0.12330217221042106,-0.3559077629440299,-0.17064470659577252
-27.371000000000002,25.0,25.56,0.06972356408236347,0.20012075983492084,-0.32387702531209706
-23.371000000000002,25.0,25.56,0.21131099865721037,-0.07293126117459137,-0.19059650293009045
-19.371,25.0,25.56,0.5274889690965096,0.0022090460846058146,0.34799295099829375
-15.371000000000002,25.0,25.56,0.26948601868033994,-0.06690852237442035,0.23246574059019864
-11.371,25.0,25.56,0.02199490280359595,-0.03039625635369303,0.10912207968092891
-7.3709999999999996,25.0,25.56,0.06192137665921582,0.04836432063268781,0.03245538211854582
-3.3710000000000004,25.0,25.56,0.2764926459722025,0.0476635917965873,-0.08142667745349996
0.6289999999999997,25.0,25.56,-0.043099678702757105,-0.14674720821473697,0.12401101013697624
4.629,25.0,25.56,0.18040132132346698,-0.018990031525067952,-0.029768301558685817
-7.3709999999999996,25.0,29.56,0.04129594744605447,-0.0460640507504273,0.01671493156873982
-19.371,25.0,29.56,-0.41132388580941426,-0.5841230171664158,0.15492556712536354
-23.371000000000002,25.0,29.56,0.04804283326369507,0.20161308678523504,-0.004965247414556728
-27.371000000000002,25.0,29.56,-0.1169685315806801,0.46687933069887166,-0.21315097397538452
0.6289999999999997,30.0,1.5599999999999996,-0.004176828910601449,-0.16815209827149014,0.008710929687341662
-3.3710000000000004,30.0,1.5599999999999996,-0.023729671938944874,-0.08399325587613582,0.010303227848088015
-7.3709999999999996,30.0,1.5599999999999996,-0.04127061996349324,-0.016545905274367723,-0.057488222578264137
-11.371,30.0,1.5599999999999996,0.031145453051423244,-0.10592270636759493,-0.10355788472638794
-15.371000000000002,30.0,1.5599999999999996,-0.1739446156889618,-0.05224382366005309,-0.1517232556693754
-19.371,30.0,1.5599999999999996,-0.017701196954530984,-0.07059364828645998,-0.2303776923734041
-23.371000000000002,30.0,1.5599999999999996,0.08708295435120306,-0.23928652401895567,-0.3184651830345747
-27.371000000000002,30.0,1.5599999999999996,0.002579250975170977,-0.08074486945567338,-0.1218641685740679
-27.371000000000002,30.0,-2.4400000000000004,-0.18592734076338657,-0.06586317312030077,0.4069885267322215
-23.371000000000002,30.0,-2.4400000000000004,-0.15343500490466733,-0.08557059330456251,0.4102924059940172
-19.371,30.0,-2.4400000000000004,-0.21993167180694717,-0.019828051738701724,0.24933251947058532
-15.371000000000002,30.0,-2.4400000000000004,0.14609702965089066,-0.2660139920877047,-0.23877827564208198
-11.371,30.0,-2.4400000000000004,0.16218789747137197,-0.2457219841359437,-0.10259500247944975
-7.3709999999999996,30.0,-2.4400000000000004,0.049063444786182075,-0.11214182546719909,-0.1343406276022141
-3.3710000000000004,30.0,-2.4400000000000004,0.061989848640485457,0.008246387656313248,-0.015126167131856993
0.6289999999999997,30.0,-2.4400000000000004,-0.05210070273632961,-0.08444083999910035,-0.023101235114125762
4.629,30.0,-2.4400000000000004,-0.0854386755901413,-0.2094976115121272,0.06067327749813556
8.629000000000001,30.0,-2.4400000000000004,-0.13887250839090953,0.0006348936004429984,0.09729154022348196
12.629000000000001,30.0,-2.4400000000000004,-0.25500273937335977,-0.15858367025452513,0.002945266894438525
0.6289999999999997,30.0,-6.4399999999999995,0.032037298295889416,0.06985213670494539,-0.05064768579770562
-3.3710000000000004,30.0,-6.4399999999999995,0.27913680404510893,0.21949278857183452,0.360155507231541
-7.3709999999999996,30.0,-6.4399999999999995,-0.18061192548289584,0.03258160927925857,-0.12040521196121645
-11.371,30.0,-6.4399999999999995,0.17754760834735595,-0.08649250773405393,-0.07633387010242965
-15.371000000000002,30.0,-6.4399999999999995,0.33621693807925623,-0.10047684611330099,-0.04590472774557708
-19.371,30.0,-6.4399999999999995,0.04349987665616395,-0.07166351682094674,0.20036950148934474
-23.371000000000002,30.0,-6.4399999999999995,0.353686161247202,-0.2690888957925519,0.002310306634889514
-27.371000000000002,30.0,-6.4399999999999995,0.26787346740230755,-0.06652951059110124,0.16058997064268832
-27.371000000000002,30.0,-10.440000000000001,-0.835970439993744,0.4277855393435226,1.306889415538659
-23.371000000000002,30.0,-10.440000000000001,0.2201358838720191,-0.22765892489723383,-0.08800445535735446
-15.371000000000002,30.0,-10.440000000000001,-0.46222003062484085,-0.010556219476931528,0.32613412426698574
-11.371,30.0,-10.440000000000001,-0.2719646530811748,-0.1977740665262906,-0.07517595961212264
-7.3709999999999996,30.0,-10.440000000000001,-0.08371664677771784,-0.13592006079266583,-0.14967149873819086
-3.3710000000000004,30.0,-10.440000000000001,0.09348868916466552,-0.056559789688037654,-0.32732978441018523
0.6289999999999997,30.0,-10.440000000000001,-0.07172596184778501,0.004355812267614612,-0.2688012540306872
4.629,30.0,-10.440000000000001,-0.1016173558182596,-0.3353048550074067,0.056468095956169195
8.629000000000001,30.0,-10.440000000000001,-0.12115820710523334,-0.19151962029474445,-0.12103762122592232
12.629000000000001,30.0,-14.440000000000003,-0.06674016212995654,0.025212853589245965,0.6072456777699131
8.629000000000001,30.0,-14.440000000000003,-0.06147324231873391,0.031276353616244146,0.6934865560453085
4.629,30.0,-14.440000000000003,0.02930476887355281,-0.10252782609225797,0.44493249673021595
0.6289999999999997,30.0,-14.440000000000003,0.18606547320135225,0.2161028618107741,0.32754456277004906
-3.3710000000000004,30.0,-14.440000000000003,0.29425210033119237,0.3003231039847509,0.1569650064518091
-7.3709999999999996,30.0,-14.440000000000003,0.2881689598891152,0.3519213178179714,0.23903187791293745
-11.371,30.0,-14.440000000000003,0.25796761385574185,0.16545943416011455,0.344946856950723
-15.371000000000002,30.0,-14.440000000000003,0.38204731685531346,0.28556152941089374,0.3327230959339511
-19.371,30.0,-14.440000000000003,0.27404999352363124,0.5210056492820414,0.25004618779351784
-23.371000000000002,30.0,-14.440000000000003,0.4023313506089865,0.6811620176473243,0.5993747927587167
-27.371000000000002,30.0,-14.440000000000003,0.3166061679187815,0.08280987951005403,-0.2634080657648141
-27.371000000000002,30.0,-18.44,0.5787851871348282,-0.03469882174676475,-0.18684331137708288
-23.371000000000002,30.0,-18.44,0.09673590239567265,-0.07268035599373168,-0.6445996430171963
-19.371,30.0,-18.44,-0.7638589013465341,-0.02499973517265941,-0.0408008775309332
-15.371000000000002,30.0,-18.44,0.08388557971472366,-0.2744316661649704,-0.4098146640856615
-11.371,30.0,-18.44,0.09420962947185862,-0.16804595416088364,-0.6267937330707407
-7.3709999999999996,30.0,-18.44,0.00660946495233683,-0.27858250890784864,-0.39379440924022235
-3.3710000000000004,30.0,-18.44,0.10227480717642651,-0.268301167251489,-0.34025494567896386
0.6289999999999997,30.0,-18.44,0.1306615656094634,-0.030176867479819736,-0.1814832201418093
4.629,30.0,-18.44,0.1499479410880491,-0.32486853835381746,-0.12301086763686908
0.6289999999999997,30.0,5.56,-0.01374312907224673,-0.12814208663898263,-0.026972295233342047
4.629,30.0,5.56,-0.20018084990662577,0.03431113739801872,-0.10839072048232229
8.629000000000001,30.0,5.56,-0.2491469104113589,-0.003768836580897439,-0.004099037011985607
-3.3710000000000004,30.0,5.56,-0.005243198973227392,-0.08127885847862282,-0.09371431273808156
-7.3709999999999996,30.0,5.56,-0.11639651717650634,-0.07018313537353604,0.0038419515087304013
-11.371,30.0,5.56,-0.05697285736837032,-0.05306016490591037,0.012243515767616786
-15.371000000000002,30.0,5.56,-0.12163764632026342,-0.04838702326607769,-0.10062632198380023
-19.371,30.0,5.56,-0.04848997753545692,-0.05728513526178647,-0.2800497093193591
-23.371000000000002,30.0,5.56,0.0036497836469862044,0.02934435681003489,0.331036538254402
-27.371000000000002,30.0,5.56,0.07762561386059352,-0.047806345135387174,-0.49699187860157285
-27.371000000000002,30.0,9.559999999999999,0.0008473027100885933,0.08301751802249902,0.31996027248550396
-23.371000000000002,30.0,9.559999999999999,-0.06502133717948277,0.1293425245631974,0.5339176907087468
-19.371,30.0,9.559999999999999,-0.20359384868536556,0.10637348747528086,-0.11721655291809172
-15.371000000000002,30.0,9.559999999999999,-0.12569947264951253,0.05903051651236502,0.11317909176287791
-11.371,30.0,9.559999999999999,-0.09035772559507493,-3.478372032073018e-05,0.15390822485053593
-7.3709999999999996,30.0,9.559999999999999,-0.08125678218736387,-0.08095539428900067,0.02240964136214843
-3.3710000000000004,30.0,9.559999999999999,-0.019798407191341794,-0.15503491994755536,-0.18133962972376946
0.6289999999999997,30.0,9.559999999999999,-0.014677548104929938,-0.22978707192471415,-0.24815315327854567
4.629,30.0,9.559999999999999,-0.1039190445467384,-0.06792486285586707,-0.3247606082250769
8.629000000000001,30.0,9.559999999999999,-0.16342341164421598,0.01864913177369587,-0.16895101910562801
12.629000000000001,30.0,9.559999999999999,-0.2724526826311899,0.16321569068152297,-0.38060170839357355
-27.371000000000002,30.0,13.56,-0.17751556479106978,-0.11614501918248421,-0.48129974929199404
-23.371000000000002,30.0,13.56,-0.24764684092691835,-0.0054066821509490826,-0.07025689601250773
-19.371,30.0,13.56,-0.05258369124164497,0.2107705742882049,0.34267470209624895
-15.371000000000002,30.0,13.56,-0.27279793477515135,-0.034357490163011706,0.12144410495190938
-11.371,30.0,13.56,-0.10005710442778093,0.01743644712082215,0.17468695801411693
-7.3709999999999996,30.0,13.56,-0.21516670885111944,-0.03515577309196605,-0.12963805924574856
-3.3710000000000004,30.0,13.56,-0.074981656604102,-0.07610526961952524,-0.18365706493480294
0.6289999999999997,30.0,13.56,0.1666689636716845,0.0670768705156699,-0.08159458602320091
4.629,30.0,13.56,0.020018311692562504,0.2946765635206794,-0.05832501693388836
8.629000000000001,30.0,13.56,0.17587312568609764,0.10656631479999401,-0.19250978052036405
0.6289999999999997,30.0,17.56,-0.14250256744460787,-0.1927164324350472,0.006017878459362025
4.629,30.0,17.56,-0.08148160374405779,0.21611285177994266,0.09557139047367963
8.629000000000001,30.0,17.56,0.03653752313152875,0.4022437985449434,0.0029773456803314224
-3.3710000000000004,30.0,17.56,0.0188460850366709,-0.14519183875724706,-0.08054406724524871
-7.3709999999999996,30.0,17.56,-0.09109725825414416,0.026687411076981027,-0.028166020966859107
-11.371,30.0,17.56,0.11551415914080043,0.13043136239258568,0.3218206362141082
-15.371000000000002,30.0,17.56,-0.0331919885784876,0.08122068596317367,0.28694938528159714
-19.371,30.0,17.56,0.06371662625973828,0.06046471141985532,0.25167678288390144
-23.371000000000002,30.0,17.56,0.06327308312082947,0.0077555820876873405,0.370074437679245
-27.371000000000002,30.0,17.56,-0.22033435527246126,-0.17395387872293222,-0.36723463246806226
-27.371000000000002,30.0,21.560000000000002,-0.1117542623844281,-0.19537415755500054,-0.2725005123725241
-23.371000000000002,30.0,21.560000000000002,-0.09450034144347086,-0.2037735774807592,-0.2261089648883316
-19.371,30.0,21.560000000000002,-0.17500153892484327,-0.06819151493120401,-0.09026124672097263
-15.371000000000002,30.0,21.560000000000002,-0.044521370863606635,0.019793467067963366,0.3548572948772158
-11.371,30.0,21.560000000000002,-0.2027520027473806,-0.13488622693880736,-0.11467697806584604
-7.3709999999999996,30.0,21.560000000000002,-0.2373371656984785,-0.17591328475989876,-0.26529176155007245
-3.3710000000000004,30.0,21.560000000000002,0.032162955504753954,-0.15422620427925637,-0.002399723260353148
0.6289999999999997,30.0,21.560000000000002,-0.1905486699931458,-0.10853264537935003,-0.015860517128522822
4.629,30.0,21.560000000000002,-0.23374100635711081,-0.09211398307880647,-0.09387526587340406
-3.3710000000000004,30.0,25.56,0.4808829132615919,0.04373657957413846,-0.2195903005132449
0.6289999999999997,30.0,25.56,-0.37673161292463564,-0.12302564007095618,-0.2330404314093648
4.629,30.0,25.56,-0.39901671506752145,0.15682666251215505,-0.08619244439079243
-3.3710000000000004,30.0,25.56,-0.25296728745237834,-0.12119725015015681,-0.2971813467859852
-7.3709999999999996,30.0,25.56,-0.1263456230122889,-0.16871550447696282,-0.1301997121982701
-11.371,30.0,25.56,-0.13766384243474872,-0.06281995537110174,0.16935762859206505
-15.371000000000002,30.0,25.56,0.15798769743343433,0.033618400624096934,0.38713599942988286
-19.371,30.0,25.56,0.3189666668880681,0.04117336860404719,0.5452075654333643
-23.371000000000002,30.0,25.56,-0.21913422586934406,-0.20263698948436715,0.036144871946802715
-27.371000000000002,30.0,25.56,-0.5326254102676009,-0.1121954945220327,-0.37795704907571115
-27.371000000000002,30.0,29.56,-0.013880650411496331,0.28304456495843455,0.1040076555583247
-23.371000000000002,30.0,29.56,0.02891259414219416,-0.07789233258687078,0.03906272323267457
-19.371,30.0,29.56,-0.15002727630581691,-0.2750923790118598,-0.01826163744751419
-15.371000000000002,30.0,29.56,-0.30220029316545827,-0.18003560140718577,0.0350267970054885
4.629,35.000009999999996,1.5599999999999996,-0.1524213751620016,0.01924478165047927,0.13834803095188752
8.629000000000001,35.000009999999996,1.5599999999999996,-0.30053139522405875,0.22848876313008581,0.11396169074142926
0.6289999999999997,35.000009999999996,1.5599999999999996,-0.10915691066705757,0.09590388723628163,0.1649911785356145
-3.3710000000000004,35.000009999999996,1.5599999999999996,-0.10599662453142505,0.052012639458653975,0.1765838281076043
-7.3709999999999996,35.000009999999996,1.5599999999999996,-0.06895735043993267,0.13163492845978952,0.15574898603991916
-11.371,35.000009999999996,1.5599999999999996,-0.17910704743129835,0.10400865698536599,0.19896596548325818
-15.371000000000002,35.000009999999996,1.5599999999999996,-0.12558039555346234,0.051718356013036315,-0.03674725893717257
-19.371,35.000009999999996,1.5599999999999996,0.05046863821329961,0.042666561489068666,-0.20252632095559553
-23.371000000000002,35.000009999999996,1.5599999999999996,-0.021889395627883168,-0.028093436796705618,0.157992033310686
-27.371000000000002,35.000009999999996,1.5599999999999996,-0.057932983288616624,0.07159857449479112,-0.09509749010960522
-27.371000000000002,35.000009999999996,-2.4400000000000004,0.014349446228606455,-0.002639475128718427,0.037001417781296064
-23.371000000000002,35.000009999999996,-2.4400000000000004,-0.01366127245738813,-0.059685913261431356,-0.2515945831752797
-19.371,35.000009999999996,-2.4400000000000004,0.0538946321377215,-0.05489296982428282,-0.18347315845635426
-15.371000000000002,35.000009999999996,-2.4400000000000004,0.027057682568362718,-0.08612324262231574,-0.16603793482757312
-11.371,35.000009999999996,-2.4400000000000004,0.019084338051283956,-0.04182146576103829,-0.11489292697512421
-7.3709999999999996,35.000009999999996,-2.4400000000000004,0.03230008142826313,0.07261983335478117,0.11840338252125382
-3.3710000000000004,35.000009999999996,-2.4400000000000004,0.016927965063283368,0.08403154702159576,0.2878178660157993
0.6289999999999997,35.000009999999996,-2.4400000000000004,0.02908310649432644,0.04051352496969307,0.3472654403786135
4.629,35.000009999999996,-2.4400000000000004,-0.1438351120064827,0.052053931028706035,0.2859928267873457
8.629000000000001,35.000009999999996,-2.4400000000000004,-0.12812310151506662,0.2598607444754708,0.3205768565883671
0.6289999999999997,35.000009999999996,-6.4399999999999995,-0.37532793288760913,0.22021956980535773,0.08434847375193844
-3.3710000000000004,35.000009999999996,-6.4399999999999995,-0.008271632450464195,0.19850796253052527,0.062298391150883425
-7.3709999999999996,35.000009999999996,-6.4399999999999995,-0.2545562612782909,0.08015345090133241,0.08313718531969272
-11.371,35.000009999999996,-6.4399999999999995,0.11330654924479044,-0.032903573341602765,-0.10322936678703876
-15.371000000000002,35.000009999999996,-6.4399999999999995,0.1321190411830625,-0.14343848595264053,-0.15075048833985694
-19.371,35.000009999999996,-6.4399999999999995,0.31638003323877506,-0.22899369407060055,-0.021947925370846555
-23.371000000000002,35.000009999999996,-6.4399999999999995,-0.28901592548462585,-0.017282345345387418,0.20075657445705608
-27.371000000000002,35.000009999999996,-6.4399999999999995,-0.23843645550375991,-0.11555098830141608,0.41267086442836054
-27.371000000000002,35.000009999999996,-10.440000000000001,0.11379737180268745,-0.0915557804679279,-0.21001937113260816
-23.371000000000002,35.000009999999996,-10.440000000000001,0.20645139086434838,-0.26557384385321736,-0.12908143669488892
-15.371000000000002,35.000009999999996,-10.440000000000001,0.19910414532568754,-0.13949715316761702,-0.17562002575466362
-11.371,35.000009999999996,-10.440000000000001,0.1169297077960596,-0.11312426202281234,-0.025917281948628634
-7.3709999999999996,35.000009999999996,-10.440000000000001,0.14033558715772776,0.0874978211781452,-0.043779542664479365
-3.3710000000000004,35.000009999999996,-10.440000000000001,0.011774602700463654,0.1915635444569519,-0.13395153112606417
0.6289999999999997,35.000009999999996,-10.440000000000001,-0.06476366213871709,0.10355972926155976,0.007458362111756323
4.629,35.000009999999996,-10.440000000000001,-0.11310915363364794,0.014998553485290333,-0.06172369317571924
4.629,35.000009999999996,-14.440000000000003,-0.07438192139739043,-0.2537290589189056,-0.018422553810509834
0.6289999999999997,35.000009999999996,-14.440000000000003,-0.14183077408440048,0.011823152936107917,-0.29615688233524673
-3.3710000000000004,35.000009999999996,-14.440000000000003,-0.0613828109497741,0.016835623011457468,-0.31095160306560676
-7.3709999999999996,35.000009999999996,-14.440000000000003,-0.18702278256582383,0.09597647125123565,-0.25025808518406856
-11.371,35.000009999999996,-14.440000000000003,-0.8188327907730886,0.14227545725929436,0.6793625587178331
-15.371000000000002,35.000009999999996,-14.440000000000003,0.11518361658468812,-0.142923742916079,-0.14356601469718844
-19.371,35.000009999999996,-14.440000000000003,0.029808547869139557,-0.0660054060587778,-0.1528321404225097
-23.371000000000002,35.000009999999996,-14.440000000000003,-0.48921373791968037,-0.08155739711564469,0.18755259088081844
-27.371000000000002,35.000009999999996,-14.440000000000003,-0.5246430619930631,0.16161594093846432,0.2659231546400409
-27.371000000000002,35.000009999999996,-18.44,-0.04875241570147515,0.20904884261088164,-0.11307474749460145
-23.371000000000002,35.000009999999996,-18.44,-0.9848634018343905,0.19043334963193548,0.38066575426793925
-19.371,35.000009999999996,-18.44,0.01964012773721102,0.07138448226698957,-0.20146811814021337
-15.371000000000002,35.000009999999996,-18.44,-0.8625402146574618,-0.01545803612139629,0.11717938028640296
-11.371,35.000009999999996,-18.44,0.024082573296685394,-0.09021669490839046,-0.2058016208692226
-7.3709999999999996,35.000009999999996,-18.44,0.022922282676943184,0.041726368312350326,-0.4159353402229282
-3.3710000000000004,35.000009999999996,-18.44,0.11858696268062102,-0.10358338527316491,-0.4120860848747965
0.6289999999999997,35.000009999999996,-18.44,-0.01267332694547263,-0.16216122446311987,-0.12351033614539375
4.629,35.000009999999996,-18.44,-0.06668160416569459,-0.32461708418304314,-0.1048496270964483
12.629000000000001,35.000009999999996,-18.44,-0.3126706796257525,-0.1818469820599633,-0.0336253311216117
16.628999999999998,35.000009999999996,-18.44,-0.06123084302150639,0.352854350805909,-0.4154794603389189
-27.371000000000002,35.000009999999996,5.56,0.07875316962052126,0.031453618257198945,0.38387654667333265
-23.371000000000002,35.000009999999996,5.56,0.00978236309692182,-0.07719275468566766,-0.32830959174764557
-19.371,35.000009999999996,5.56,-0.08306428057580362,0.04423389736751826,-0.12527559106954161
-15.371000000000002,35.000009999999996,5.56,-0.16863260892830134,0.06675913155842483,-0.1187437460058463
-11.371,35.000009999999996,5.56,-0.12175349779044997,0.08760049391628444,-0.052778055252268585
-7.3709999999999996,35.000009999999996,5.56,-0.09790809517556676,0.08640540440414957,-0.05253668932832106
-3.3710000000000004,35.000009999999996,5.56,-0.043139351727407294,-0.02097918887155603,-0.0568851820982777
0.6289999999999997,35.000009999999996,5.56,-0.06695751977562892,0.08174837902129584,0.08319601524250236
4.629,35.000009999999996,5.56,-0.27063727866545073,0.006910316385011495,-0.1531319249027288
8.629000000000001,35.000009999999996,5.56,-0.2630567395053976,-0.1491531801660062,-0.06188866501044693
-27.371000000000002,35.000009999999996,9.559999999999999,-0.05022768419226664,0.14716000174782584,0.284559698449089
-23.371000000000002,35.000009999999996,9.559999999999999,-0.15698060563633653,0.11469340585653631,-0.3377290521543945
-19.371,35.000009999999996,9.559999999999999,-0.18464189956423904,0.07344704051681084,-0.310498129968944
-15.371000000000002,35.000009999999996,9.559999999999999,-0.13319678283470193,0.06753386320991206,0.1688334677281196
-11.371,35.000009999999996,9.559999999999999,-0.19246199021077381,0.016193118643581528,-0.20366874377227215
-7.3709999999999996,35.000009999999996,9.559999999999999,-0.17530739147667285,-0.005447228822397232,-0.031044090752135184
-3.3710000000000004,35.000009999999996,9.559999999999999,-0.0818426985642065,-0.04863003089207174,0.04117972668594219
0.6289999999999997,35.000009999999996,9.559999999999999,-0.052834855413647075,-0.009089193819011854,0.024068904551350495
4.629,35.000009999999996,9.559999999999999,-0.01414650594670809,0.013514593065599989,-0.28104056917049247
4.629,35.000009999999996,13.56,-0.12753159106699585,-0.0033600752901874475,0.15519355990621098
0.6289999999999997,35.000009999999996,13.56,-0.015673499473217722,-0.08577420091844257,-0.06157536929772556
-3.3710000000000004,35.000009999999996,13.56,-0.051648401598893,-0.14719145727553617,-0.2287354144375947
-7.3709999999999996,35.000009999999996,13.56,0.07373091653951891,0.06127896192767435,-0.09496189246734621
-11.371,35.000009999999996,13.56,-0.15691017151809317,0.005549180307745649,0.009032213335183337
-15.371000000000002,35.000009999999996,13.56,-0.22590305850694048,-0.045801517100096945,0.03401245521174323
-19.371,35.000009999999996,13.56,-0.1956428321885334,0.01242317888260347,-0.19576358773052138
-23.371000000000002,35.000009999999996,13.56,-0.18053423356223508,-0.15258633174793368,-0.4425984650340026
-27.371000000000002,35.000009999999996,13.56,-0.2929838747602387,0.011688867985881757,-0.568172113809326
-27.371000000000002,35.000009999999996,17.56,-0.1885410241291241,-0.0824640280648603,-0.36347828271016264
-23.371000000000002,35.000009999999996,17.56,-0.23089879872779662,-0.11012379770244385,-0.4350782918592602
-19.371,35.000009999999996,17.56,0.005109589296539707,0.043628055853067726,0.07574150898272819
-15.371000000000002,35.000009999999996,17.56,-0.13223266766413666,0.04003120137230365,0.24654917424616757
-11.371,35.000009999999996,17.56,-0.060732621688935895,-0.005732696774685131,0.0984315516784337
-7.3709999999999996,35.000009999999996,17.56,0.04539406696210391,0.05822417170892047,-0.25001699295651575
-3.3710000000000004,35.000009999999996,17.56,0.25843453508070796,0.027201962313183614,-0.1963490295712203
0.6289999999999997,35.000009999999996,17.56,-0.20787801546219842,-0.03999645856062606,-0.03431599019304704
4.629,35.000009999999996,17.56,-0.18052383108437575,0.13510306201974243,0.053830164815392434
8.629000000000001,35.000009999999996,17.56,-0.1126687869281065,0.23454378942390774,0.14621203505332664
8.629000000000001,35.000009999999996,21.560000000000002,-0.13239704690073545,0.1705700709517366,0.37525080626780866
4.629,35.000009999999996,21.560000000000002,-0.187711187594217,0.24622135019440883,0.4433215281143224
0.6289999999999997,35.000009999999996,21.560000000000002,0.12051617858475638,0.20339237205146965,0.31027031241966513
-3.3710000000000004,35.000009999999996,21.560000000000002,-0.34586254331930993,0.0017115349588536777,0.28140699714479106
-7.3709999999999996,35.000009999999996,21.560000000000002,-0.25260272422026053,-0.1368212631765009,0.06905108113206132
-11.371,35.000009999999996,21.560000000000002,-0.2972736566111245,-0.07462615927172345,-0.05376030158518591
-15.371000000000002,35.000009999999996,21.560000000000002,-0.22301004445291206,-0.00045006349332910034,-0.12271643054815734
-19.371,35.000009999999996,21.560000000000002,-0.2512081219658374,-0.040664588912714406,-0.14508447481961645
-23.371000000000002,35.000009999999996,21.560000000000002,-0.21392334901655374,-0.041188769207278764,-0.20634636077965646
-27.371000000000002,35.000009999999996,21.560000000000002,-0.04649133894209512,0.04871340393374224,0.03224257482637577
-27.371000000000002,35.000009999999996,25.56,-0.0853362268345148,0.14355140919806164,0.20009311227817128
-23.371000000000002,35.000009999999996,25.56,-0.2279271731919552,-0.0678746979718925,-0.20032081453842943
-19.371,35.000009999999996,25.56,-0.32763292420294465,0.05517443419291168,-0.17885311609054377
-15.371000000000002,35.000009999999996,25.56,0.07094956576201017,0.18722187709714344,0.046421703954518945
-11.371,35.000009999999996,25.56,-0.4501649595991586,-0.12864219404724597,-0.2576745201404995
-7.3709999999999996,35.000009999999996,25.56,-0.06232851010295748,-0.04864649840550239,0.0168311117125175
-3.3710000000000004,35.000009999999996,25.56,-0.28100859845047316,-0.0599763906599049,0.020470555657053913
0.6289999999999997,35.000009999999996,25.56,-0.20671831440532418,-0.07845597903369805,0.018957281909698365
4.629,35.000009999999996,25.56,-0.3708327447434743,-0.07681598444424509,0.21083733799261428
0.6289999999999997,35.000009999999996,29.56,0.21127819925280122,0.12739455437696945,-0.15057932713522515
-3.3710000000000004,35.000009999999996,29.56,0.4351785054445542,0.12604416646200267,-0.12064669496633096
-7.3709999999999996,35.000009999999996,29.56,-0.292516986111932,-0.19360895222549912,-0.15090808418362078
-11.371,35.000009999999996,29.56,-0.33440311806972045,-0.19097889248871347,-0.12576972252432705
-15.371000000000002,35.000009999999996,29.56,0.2966331832007868,0.0932148373336994,0.15200762512256327
-19.371,35.000009999999996,29.56,0.5209199554537386,0.10158386391468377,0.5495566263203799
-23.371000000000002,35.000009999999996,29.56,0.023817279768079125,-0.14870185867333907,-0.14634311105451436
-27.371000000000002,35.000009999999996,29.56,-0.08447296685210604,0.09457999865675748,-0.11040751353995626
4.629,40.00001,1.5599999999999996,-0.1884707321884369,-0.1467434537972656,0.05076582570626986
0.6289999999999997,40.00001,1.5599999999999996,-0.09476309263189431,-0.05399682317063226,0.11185950475286754
-3.3710000000000004,40.00001,1.5599999999999996,-0.06898909068727838,-0.023756556499382464,0.030841639201009685
-7.3709999999999996,40.00001,1.5599999999999996,-0.11884390170623094,0.13425778436280122,0.05127642144786837
-11.371,40.00001,1.5599999999999996,-0.1828479767423341,0.11381161269933271,0.23133052488059358
-15.371000000000002,40.00001,1.5599999999999996,-0.2202974764251603,0.014808745445277216,0.06584907794628114
-19.371,40.00001,1.5599999999999996,-0.11488737139335459,0.07018777539825605,-0.18060663798309118
-23.371000000000002,40.00001,1.5599999999999996,-0.3379118866698727,0.1293724435143584,0.16301299186416707
-27.371000000000002,40.00001,1.5599999999999996,-0.2944284318222079,0.07408272277361072,0.36767870302293615
-27.371000000000002,40.00001,-2.4400000000000004,-0.06853871785434396,-0.052633053496176085,-0.23526267419571867
-23.371000000000002,40.00001,-2.4400000000000004,-0.11844974486803217,-0.03310823211104541,-0.31555921941652243
-19.371,40.00001,-2.4400000000000004,-0.08474304898382357,0.056201618050794044,-0.20784746769643703
-15.371000000000002,40.00001,-2.4400000000000004,-0.019348232245677832,-0.14920251770672022,-0.0856011145770108
-11.371,40.00001,-2.4400000000000004,-0.03702678590485342,-0.09347884689136499,-0.02060554932405423
-7.3709999999999996,40.00001,-2.4400000000000004,-0.06422455424815732,0.04497909503153874,-0.0608995914028132
-3.3710000000000004,40.00001,-2.4400000000000004,-0.04529450123681583,-0.023409317917766348,0.12062377229041243
0.6289999999999997,40.00001,-2.4400000000000004,-0.30002906263335016,0.06187754485410535,0.07888796636721929
4.629,40.00001,-2.4400000000000004,-0.20722741499563413,0.003504525498426725,0.14616220621621046
4.629,40.00001,-6.4399999999999995,-0.1352448309201313,-0.028700592933272873,0.1483007902152278
0.6289999999999997,40.00001,-6.4399999999999995,-0.026462117404263408,0.039410519421079204,0.3532000300117022
-3.3710000000000004,40.00001,-6.4399999999999995,-0.23322111017610864,0.13400651737122127,0.29350924665298983
-7.3709999999999996,40.00001,-6.4399999999999995,-0.10084399037882663,-0.0045224891017436875,0.14263968166926544
-11.371,40.00001,-6.4399999999999995,-0.20637794745331228,0.012697083830859324,0.20342208996708688
-15.371000000000002,40.00001,-6.4399999999999995,-0.13533512495489675,-0.16633899497768834,0.41861904685409623
-19.371,40.00001,-6.4399999999999995,-0.21235119202829,0.049191553536021004,0.5655064246218311
-23.371000000000002,40.00001,-6.4399999999999995,0.07338669752825489,-0.13348301153001674,-0.04254569492890825
-27.371000000000002,40.00001,-6.4399999999999995,-0.20105715685345138,0.08413448074936491,0.33126970555464874
-27.371000000000002,40.00001,-10.440000000000001,0.05389897522441456,-0.31041977899205486,0.18691729845387028
-23.371000000000002,40.00001,-10.440000000000001,0.1141695502538509,-0.2128754461864224,-0.1506096661850198
-15.371000000000002,40.00001,-10.440000000000001,0.08292455583620295,-0.3712849430780707,0.20600203447448395
-11.371,40.00001,-10.440000000000001,0.046709177400833246,-0.1149099411985599,0.06944094360012976
-7.3709999999999996,40.00001,-10.440000000000001,-0.276533052993963,-0.07447021288334299,0.1384962486154051
-3.3710000000000004,40.00001,-10.440000000000001,-0.094908303809417,0.1279368872781017,0.014128268096291752
0.6289999999999997,40.00001,-10.440000000000001,0.021431743499383815,0.03461520584283617,0.20673709785301586
4.629,40.00001,-10.440000000000001,-0.05634510236880198,-0.14312984426559927,0.13376630417601953
0.6289999999999997,40.00001,-14.440000000000003,-0.24250691897662047,-0.14362841075857835,-0.13275233993002566
-3.3710000000000004,40.00001,-14.440000000000003,-0.20945198376126767,-0.08093255877670291,-0.08333937005567393
-7.3709999999999996,40.00001,-14.440000000000003,0.03750415652125361,-0.04264985889721462,-0.0342479402853646
-11.371,40.00001,-14.440000000000003,-0.09950906950658145,-0.10748786763272733,0.09250771078901932
-15.371000000000002,40.00001,-14.440000000000003,-0.17929120705870993,-0.2454630336220509,0.23695564367089417
-19.371,40.00001,-14.440000000000003,-0.4909558226489502,-0.09382098719540322,0.4034996222212539
-23.371000000000002,40.00001,-14.440000000000003,0.10283326625342148,-0.2523982649618117,-0.006877143414657505
-27.371000000000002,40.00001,-14.440000000000003,-0.6415367518709691,0.08379912657508481,0.40617439622785967
-27.371000000000002,40.00001,-18.44,-0.211188009779123,0.1641461657584775,-0.27695073678177806
-23.371000000000002,40.00001,-18.44,0.004447960483355828,-0.16623716133521427,0.04122347099416723
-19.371,40.00001,-18.44,0.03882016636827246,-0.05388998382725996,-0.04970878034392667
-15.371000000000002,40.00001,-18.44,-0.07227782844721198,-0.11843744749122087,-0.13816825854371384
-11.371,40.00001,-18.44,-0.6130432201679137,-0.11380563122387333,-0.06474205296006508
-7.3709999999999996,40.00001,-18.44,-0.012925366241764435,-0.1269109387751266,-0.0997142081547997
-3.3710000000000004,40.00001,-18.44,-0.07571915265286583,-0.04586576194903769,-0.03112954099350196
0.6289999999999997,40.00001,-18.44,-0.6221307301567058,-0.31939948992217304,-0.1248080643341476
4.629,40.00001,-18.44,-0.5193798660098479,-0.4572324246303716,-0.03311797014896589
0.6289999999999997,40.00001,5.56,-0.0568214443829429,-0.05678887288748102,0.053570390683375935
-3.3710000000000004,40.00001,5.56,-0.016998868921160037,-0.201271010493409,0.021322248361597962
-7.3709999999999996,40.00001,5.56,-0.07324641523057396,-0.05135006754122817,-0.11092658274373252
-11.371,40.00001,5.56,-0.08394947309856016,0.16898373953864732,0.22923494163877706
-15.371000000000002,40.00001,5.56,-0.17606303147695013,-0.052453138148378375,-0.07448485767431873
-19.371,40.00001,5.56,-0.09457904317904109,-0.14811284959059812,-0.09887491222882044
-23.371000000000002,40.00001,5.56,-0.05238265403904041,-0.17223070635761784,-0.3488371859178843
-27.371000000000002,40.00001,5.56,-0.020945117936904678,-0.21327264250519673,-0.4240079278483813
-27.371000000000002,40.00001,9.559999999999999,0.10974179533987383,0.046407622270061566,0.6686159471945681
-23.371000000000002,40.00001,9.559999999999999,-0.05709151149826397,-0.04280704646134059,0.011322743800185747
-19.371,40.00001,9.559999999999999,0.03447254543629541,-0.055492005621921026,0.27492725274774266
-15.371000000000002,40.00001,9.559999999999999,-0.0622498365110441,0.04491267678780053,0.3277343765885794
-11.371,40.00001,9.559999999999999,-0.01745487894262987,-0.1192616694023485,-0.11568433012513687
-7.3709999999999996,40.00001,9.559999999999999,-0.06124666269312351,-0.1775918753694261,-0.03548982655189811
-3.3710000000000004,40.00001,9.559999999999999,-0.0036549564047430594,-0.1449041349794733,-0.16198704629132796
0.6289999999999997,40.00001,9.559999999999999,0.26689545097838274,0.02739977094154411,0.3333729560880023
4.629,40.00001,9.559999999999999,0.013312336958628754,0.012578046620864702,-0.15535542440115388
8.629000000000001,40.00001,9.559999999999999,0.2620574287053076,-0.19311270795423496,0.349536709979565
12.629000000000001,40.00001,9.559999999999999,0.03986487233429009,-0.0629929154233988,-0.21731552269955087
12.629000000000001,40.00001,13.56,0.5568791255710706,-0.24392312367453317,0.07967913352956713
8.629000000000001,40.00001,13.56,0.31589300330010367,-0.1171057048730606,-0.1727164957359223
4.629,40.00001,13.56,0.17623677600655774,-0.09441368393905414,-0.028445064952095644
0.6289999999999997,40.00001,13.56,0.28196961795246556,-0.10318238989205919,-0.1363855560240851
-3.3710000000000004,40.00001,13.56,-0.008143215386414993,-0.16876005315595854,0.0781826683228043
-7.3709999999999996,40.00001,13.56,-0.2265121329111247,-0.16774259113630507,-0.19915835002688176
-11.371,40.00001,13.56,-0.043957500283348105,0.10507143665861585,0.2387463623803071
-15.371000000000002,40.00001,13.56,0.0225584125343542,-0.013856924965671702,0.4509833777917499
-19.371,40.00001,13.56,0.11824145178527534,0.12695308895843693,0.5416114186521243
-23.371000000000002,40.00001,13.56,0.050973210576654715,0.008927919287893271,0.398791237359844
-27.371000000000002,40.00001,13.56,0.017129384344666265,0.09261526199457748,0.6328472695065451
-27.371000000000002,40.00001,17.56,0.212467705232805,0.15038370720022454,0.7230498411973305
-23.371000000000002,40.00001,17.56,0.03195599901897328,0.17683751825097183,0.44332630948260426
-19.371,40.00001,17.56,0.005854373831828963,-0.04942628051862741,0.2777471825603936
-15.371000000000002,40.00001,17.56,0.1588637069956017,0.19938051969904946,0.423979190578104
-11.371,40.00001,17.56,-0.34412783570552663,-0.03810664827083032,-0.2500921540952841
-7.3709999999999996,40.00001,17.56,-0.18384594197270177,-0.12302423355828318,-0.15040427785257965
-3.3710000000000004,40.00001,17.56,-0.39718418394666527,-0.22544633363181799,-0.25263822384127416
0.6289999999999997,40.00001,17.56,-0.15014166578294907,-0.195026861827452,-0.1075756818610843
4.629,40.00001,17.56,-0.19179997014939532,-0.17726331302073683,-0.003006502905324171
4.629,40.00001,21.560000000000002,-0.3278321340965038,-0.12070310919886085,0.21520638289502375
0.6289999999999997,40.00001,21.560000000000002,-0.06780654562891786,-0.10023273741395222,-0.03592330218371992
-3.3710000000000004,40.00001,21.560000000000002,0.8172029605418061,-0.1557436325523187,0.6194016675787852
-7.3709999999999996,40.00001,21.560000000000002,-0.13314127210214133,-0.05577995802431568,0.08838508060513145
-11.371,40.00001,21.560000000000002,0.17596587519110307,0.06215377047217863,-0.05769498977122173
-15.371000000000002,40.00001,21.560000000000002,0.20654290467285452,0.14007313472476635,-0.03854276771440429
-19.371,40.00001,21.560000000000002,0.07205071475094027,-0.028143227540139426,0.105612746061641
-23.371000000000002,40.00001,21.560000000000002,0.35577117489828947,0.0655674597784095,0.31557294739556624
-27.371000000000002,40.00001,21.560000000000002,-0.017916151960511995,-0.1841978505223829,-0.07674794217816111
-27.371000000000002,40.00001,25.56,0.38155976470045094,0.07388598983353867,0.6235875342173347
-23.371000000000002,40.00001,25.56,-0.18268049312661905,0.02250879283681173,-0.21374418948903462
-19.371,40.00001,25.56,-0.14217209921927043,-0.0031490014616386564,-0.09722418784304243
-15.371000000000002,40.00001,25.56,0.02791182993304442,-0.008669163612007313,-0.04884664790990034
-11.371,40.00001,25.56,-0.45869313540441436,-0.06433831445982197,-0.3795618860285732
-7.3709999999999996,40.00001,25.56,0.3134618252739779,0.1958248770266846,-0.10856637694747762
-3.3710000000000004,40.00001,25.56,0.4266938709901122,0.23756673438826148,-0.19883709488127121
0.6289999999999997,40.00001,25.56,0.27622370187983525,0.09455971152108056,-0.002968822326560039
4.629,40.00001,25.56,0.007734155394858652,0.10976402290455711,0.24329983506953812
8.629000000000001,40.00001,25.56,-0.19008775936420058,-0.32869872284657653,0.22871675958761606
-7.3709999999999996,40.00001,29.56,-0.30949306261961185,-0.04246819234119403,-0.07820798940981755
-11.371,40.00001,29.56,-0.3096722385287187,-0.1777242478612051,-0.2602084681935124
-15.371000000000002,40.00001,29.56,0.36187836510825633,0.031292491523715604,0.34109517695387614
-19.371,40.00001,29.56,-0.05901670293182171,-0.16933680663619444,-0.1081294660607246
-23.371000000000002,40.00001,29.56,-0.07797148582826541,-0.034172940892379655,-0.12976555165057357
-27.371000000000002,40.00001,29.56,-0.00023249978619577227,-0.09866533135317601,-0.24014862992701724
4.629,45.00001,1.5599999999999996,0.41925863527907636,0.1163580898654315,-0.11247193815227818
8.629000000000001,45.00001,1.5599999999999996,0.3885846584994232,0.3776130283314916,-0.04296656510565933
12.629000000000001,45.00001,1.5599999999999996,0.479527731739067,0.2038512335059084,-0.5546187725907176
0.6289999999999997,45.00001,1.5599999999999996,0.10021130851292637,0.16964735772170836,-0.10808334140305076
-3.3710000000000004,45.00001,1.5599999999999996,0.12373862060760382,0.07741558062260845,-0.006073245473200983
-7.3709999999999996,45.00001,1.5599999999999996,0.16337115371655442,0.21100737203735842,0.07372933618564892
-11.371,45.00001,1.5599999999999996,0.13930647925616824,0.21978879386228,-0.15304943531365411
-15.371000000000002,45.00001,1.5599999999999996,0.0902561539893626,0.11141162084080114,-0.1886156971157099
-19.371,45.00001,1.5599999999999996,0.16696788415147268,0.10242873670611163,-0.2227141678433714
-23.371000000000002,45.00001,1.5599999999999996,-0.03670239176027934,0.19961651510788658,-0.36469041961045556
-27.371000000000002,45.00001,1.5599999999999996,-0.07248161073447057,0.29903471184996033,-0.03401830589472021
-27.371000000000002,45.00001,-2.4400000000000004,0.1407291923188725,0.20445327310227301,-0.6027786818587677
-23.371000000000002,45.00001,-2.4400000000000004,-0.0021527088789330406,0.24549006786504513,-0.3934830108267173
-19.371,45.00001,-2.4400000000000004,0.16642270196771947,0.08600296925477813,-0.1800386613821925
-15.371000000000002,45.00001,-2.4400000000000004,0.24836616142102919,0.016223567500173175,0.06119734321860526
-11.371,45.00001,-2.4400000000000004,0.1693639057757712,0.15847266265048288,0.010578866786675745
-7.3709999999999996,45.00001,-2.4400000000000004,0.16605365663652505,0.1643234063858634,0.021425030950278368
-3.3710000000000004,45.00001,-2.4400000000000004,0.1577583712223038,0.11377473142575867,0.22280282151209696
0.6289999999999997,45.00001,-2.4400000000000004,0.18256262232359544,0.15996725883717922,0.27361838799008775
4.629,45.00001,-2.4400000000000004,0.16813236538622234,0.13093888631371953,0.3375098145352584
8.629000000000001,45.00001,-2.4400000000000004,0.22230655751142997,0.30187070013376616,0.5665964603646045
0.6289999999999997,45.00001,-6.4399999999999995,-0.1598450712786359,0.240056944371414,0.19296728320121748
-3.3710000000000004,45.00001,-6.4399999999999995,-0.1725096223852099,0.24045054491528828,0.24957495721036338
-7.3709999999999996,45.00001,-6.4399999999999995,0.13145300126428394,0.11984015106966672,0.19211416346833765
-11.371,45.00001,-6.4399999999999995,-0.16066833152690863,0.2480731012610482,0.173210060390927
-15.371000000000002,45.00001,-6.4399999999999995,0.09850944009066331,0.2914911164483891,0.1720251255250549
-19.371,45.00001,-6.4399999999999995,0.2314780427799451,0.19325951896271842,0.09785041205234712
-23.371000000000002,45.00001,-6.4399999999999995,0.13553801130115062,0.17430310751151423,-0.08793126146540153
-27.371000000000002,45.00001,-6.4399999999999995,0.07621965668472286,0.30937373805896007,0.0311850318925444
-27.371000000000002,45.00001,-10.440000000000001,0.2989469471701478,0.07654841062177953,0.147150770259874
-23.371000000000002,45.00001,-10.440000000000001,0.24471061438244845,0.12143967299299008,0.14533892673727067
-15.371000000000002,45.00001,-10.440000000000001,0.3562776648458471,0.08563971369730528,0.2232876964654018
-11.371,45.00001,-10.440000000000001,0.28264650968976013,0.11945007695784438,0.07945085694949228
-7.3709999999999996,45.00001,-10.440000000000001,0.20461684585861006,0.23181546262353026,0.2630543056136858
-3.3710000000000004,45.00001,-10.440000000000001,0.15602011245906405,0.10296017755320741,0.40147727278365686
0.6289999999999997,45.00001,-10.440000000000001,0.2454348379960003,0.23643003313287836,0.44469116318130997
4.629,45.00001,-10.440000000000001,0.22901982547296718,0.25353030145316424,0.37023932500819257
8.629000000000001,45.00001,-10.440000000000001,0.24445384030491318,0.3111992997579305,0.3269154840138455
8.629000000000001,45.00001,-14.440000000000003,0.228600988729942,0.2825558130471195,0.1609109101895989
4.629,45.00001,-14.440000000000003,0.22926613750924552,0.03300025009952967,0.12391313021587469
0.6289999999999997,45.00001,-14.440000000000003,0.25737835308315415,0.05507799751652276,0.00583998333918978
-3.3710000000000004,45.00001,-14.440000000000003,0.1651387373824295,0.054630307663633415,0.1282965690929283
-7.3709999999999996,45.00001,-14.440000000000003,0.2893305875381197,0.09534805797224988,-0.005378872755884556
-11.371,45.00001,-14.440000000000003,0.19549318659958792,0.08120666578981806,0.16404210919648832
-15.371000000000002,45.00001,-14.440000000000003,0.26569489896343945,0.09274630339304868,0.09914672277722691
-19.371,45.00001,-14.440000000000003,0.3629836038299167,0.07124569392341629,0.056589327422645885
-23.371000000000002,45.00001,-14.440000000000003,0.216444575323127,0.07352456363746707,-0.11836740095583775
-27.371000000000002,45.00001,-14.440000000000003,0.22096050499814113,0.04165851927783182,0.004119015317555208
-27.371000000000002,45.00001,-18.44,-0.06135051187454166,0.2764069080120335,-0.10798845813219105
-23.371000000000002,45.00001,-18.44,0.022802361507556768,0.15802348264799537,-0.08460664429075226
-19.371,45.00001,-18.44,0.19091889604379297,0.17108724738406633,-0.0016948939923544515
-15.371000000000002,45.00001,-18.44,0.16356805183805612,0.019627279325434843,-0.10567806965073867
-11.371,45.00001,-18.44,0.13322370019008267,-0.000586736012175848,-0.14601142987283877
-7.3709999999999996,45.00001,-18.44,0.15588395582310233,0.0038327470986754264,-0.01996085995171759
-3.3710000000000004,45.00001,-18.44,0.19632976761910642,0.0734053277040958,-0.015360067676006839
0.6289999999999997,45.00001,-18.44,0.17607699897300155,-0.0002826964828284151,-0.011263896939806006
4.629,45.00001,-18.44,0.14535027838522807,0.07319600062425935,-0.11688929775097723
8.629000000000001,45.00001,-18.44,0.008946828138810259,0.16761742909158772,-0.017857338897286912
4.629,45.00001,5.56,0.08337133881106927,0.1014841403057909,0.07862064699058896
0.6289999999999997,45.00001,5.56,0.3792315803103741,0.3333675306528838,0.19410095571176095
-3.3710000000000004,45.00001,5.56,0.24467721480626453,-0.019369595250806615,-0.12898114864449278
-7.3709999999999996,45.00001,5.56,0.19361951375821695,0.06537171577189471,-0.2187993226815524
-11.371,45.00001,5.56,0.15341551391969133,0.17414416563490964,-0.12899596488956805
-15.371000000000002,45.00001,5.56,0.03785580308641456,0.1800935843258078,-0.030071095125040748
-19.371,45.00001,5.56,0.1093657124934061,0.0393331640529071,-0.14136957749063678
-23.371000000000002,45.00001,5.56,0.15067780486606175,-0.02535040599912497,-0.2530013788428889
-27.371000000000002,45.00001,5.56,0.1672828227264722,-0.07207648784117171,-0.5287807555821491
-27.371000000000002,45.00001,9.559999999999999,0.044703799429696156,0.04784600412078288,-0.3184515727782715
-23.371000000000002,45.00001,9.559999999999999,0.09069877267413595,0.059717280929594274,-0.18234878439157762
-19.371,45.00001,9.559999999999999,0.10200521298857901,-0.09167354794155091,-0.23931498959383554
-15.371000000000002,45.00001,9.559999999999999,0.1269325372834168,0.047611896182742086,0.016505596430122643
-11.371,45.00001,9.559999999999999,0.21136047018143755,0.040463716375854775,0.09282853339838762
-7.3709999999999996,45.00001,9.559999999999999,0.14908427633017196,0.08318439286812418,0.06576778807213038
-3.3710000000000004,45.00001,9.559999999999999,0.3038569032136493,0.06932292531103834,0.01986930016469393
4.629,45.00001,13.56,0.39873063316709056,0.09382893367677059,-0.16812389232436498
0.6289999999999997,45.00001,13.56,0.21362189100260776,-0.10952365567671873,-0.15873885331740556
-3.3710000000000004,45.00001,13.56,0.13914400871447435,-0.03758094438460202,-0.1844158491145026
-7.3709999999999996,45.00001,13.56,0.11814477042263738,0.02733292860582215,-0.24364304276398296
-11.371,45.00001,13.56,0.0758178460229908,0.025271011938748922,-0.338794363896297
-15.371000000000002,45.00001,13.56,0.06931451576374925,0.02049736780125322,-0.20338266799026783
-19.371,45.00001,13.56,0.08975443973362751,0.07450702605852344,-0.17645259432834404
-23.371000000000002,45.00001,13.56,0.019505319246571062,0.026557023344564445,-0.2489489333907996
-27.371000000000002,45.00001,13.56,-0.041406306974461904,0.053953851330296176,-0.30724307695703945
-27.371000000000002,45.00001,17.56,0.36503768371485834,0.23920527127417324,0.7076279696814889
-23.371000000000002,45.00001,17.56,-0.011185618173614742,0.029961777658332744,-0.201043993273832
-19.371,45.00001,17.56,0.06376883251442422,0.05684828362363947,-0.21184789633113127
-15.371000000000002,45.00001,17.56,0.042515579618204735,0.08370658755291749,-0.04965061040691637
-11.371,45.00001,17.56,0.545440977886974,0.09269102007906649,-0.03311604106968208
-7.3709999999999996,45.00001,17.56,0.03719193025880918,-0.09053451112027155,-0.35074841721725175
-3.3710000000000004,45.00001,17.56,0.10935245247146591,-0.09857044147107419,-0.20707484570328255
0.6289999999999997,45.00001,17.56,0.07208719224836568,-0.1384618366633228,0.1838610035095986
4.629,45.00001,17.56,0.14579668525052347,-0.08404195941582038,0.021669155864455225
8.629000000000001,45.00001,17.56,0.33270855925941895,-0.1650755791396008,-0.03051904506310571
12.629000000000001,45.00001,17.56,0.3309424328093516,-0.1542301368619825,-0.20174677152400428
4.629,45.00001,21.560000000000002,-0.053792496536672965,-0.0010851358688224177,0.39022964086498774
0.6289999999999997,45.00001,21.560000000000002,0.22185044826590894,0.16668879313397889,-0.07852673937214644
-3.3710000000000004,45.00001,21.560000000000002,-0.013866384563744616,0.04351666445226443,0.011007195332397857
-7.3709999999999996,45.00001,21.560000000000002,0.1012181067036183,0.04114248143324839,0.05482847158681664
-11.371,45.00001,21.560000000000002,-0.03783550274270575,0.044503182535776675,-0.18996190558667053
-15.371000000000002,45.00001,21.560000000000002,-0.02522637232549585,0.04678824398759995,-0.15874782038896446
-19.371,45.00001,21.560000000000002,0.032909190135035904,-0.02413762640239292,0.17847538135193491
-23.371000000000002,45.00001,21.560000000000002,-0.013523988465324877,0.036152173019360356,0.18226143341608242
-27.371000000000002,45.00001,21.560000000000002,0.06215783137886732,-0.1432718226582752,0.3730961350004683
-27.371000000000002,45.00001,25.56,-0.1867391301830501,0.07872178260257545,0.09969526197934342
-23.371000000000002,45.00001,25.56,0.07850190725493533,-0.05969248668241112,-0.16082492063640985
-19.371,45.00001,25.56,-0.01801705052168756,0.07445784750392259,-0.1688662956252751
-15.371000000000002,45.00001,25.56,0.04924765595228642,0.0827646649821101,0.011242499331548528
-11.371,45.00001,25.56,0.29470586640840124,0.11962649491790711,-0.023501724572955185
-7.3709999999999996,45.00001,25.56,-0.038296635429277415,0.13645310511490316,0.005493044102394817
-3.3710000000000004,45.00001,25.56,-0.033145842351713084,0.29792642161701743,-0.050455835462065446
0.6289999999999997,45.00001,25.56,-0.011863394834737973,0.19088446129962855,0.031864253683927535
4.629,45.00001,25.56,-0.07388060662642838,0.09852948830287311,0.12512027174182427
8.629000000000001,45.00001,25.56,0.056533361439047025,-0.03595683803351846,0.07125858274099062
12.629000000000001,45.00001,25.56,-0.06272591289733648,-0.201701803278459,-0.00753081993010718
0.6289999999999997,45.00001,29.56,0.0661213902530211,0.04719411645436877,0.016792457165981656
-3.3710000000000004,45.00001,29.56,-0.007374985599696571,0.07988613986127935,-0.06223938554071884
-7.3709999999999996,45.00001,29.56,0.04590089936517272,0.10132518080852582,-0.0023484830167119775
-11.371,45.00001,29.56,0.10776543926329096,0.12627313546459962,-0.21490479039120158
-15.371000000000002,45.00001,29.56,0.01676902473843611,-0.0778113415696613,-0.039450195116541575
-19.371,45.00001,29.56,-1.2781195738256619,-1.0098113028791322,0.9650122699993324
-23.371000000000002,45.00001,29.56,0.19786028473185446,-0.11466207819417762,0.04297861370646805
-27.371000000000002,45.00001,29.56,0.08389364098278507,-0.0796216256807647,-0.02588899376113618
4.629,50.000009999999996,1.5599999999999996,-0.1351369844110748,-0.1063369248367585,0.1820535376554494
8.629000000000001,50.000009999999996,1.5599999999999996,-0.13887044275147226,0.0023129909471619747,0.037721022178419106
0.6289999999999997,50.000009999999996,1.5599999999999996,-0.10183598221737422,-0.03014270438547184,0.5341153979945196
-3.3710000000000004,50.000009999999996,1.5599999999999996,-0.010872341319125012,0.032356317661486056,0.29779479947495135
-7.3709999999999996,50.000009999999996,1.5599999999999996,-0.0019460109903141065,-0.15345973460737516,0.2959544907130379
-11.371,50.000009999999996,1.5599999999999996,-0.013335966035837865,-0.06971470498103871,0.1424488514545269
-15.371000000000002,50.000009999999996,1.5599999999999996,-0.12399962608125314,-0.10119000339493534,0.15484824991471025
-19.371,50.000009999999996,1.5599999999999996,0.005058340250133075,-0.14166321164162943,0.30818161384230935
-23.371000000000002,50.000009999999996,1.5599999999999996,-0.38989583913786596,0.22116434539810603,0.542632498009335
-27.371000000000002,50.000009999999996,1.5599999999999996,-0.17843811570092405,0.005654224811024733,-0.14884003518083888
-27.371000000000002,50.000009999999996,-2.4400000000000004,-0.2580006985517469,0.06402444721198552,-0.14123469929350763
-23.371000000000002,50.000009999999996,-2.4400000000000004,-0.5131197357015616,0.18365097345736103,0.17107983545471828
-19.371,50.000009999999996,-2.4400000000000004,-0.1419398237794106,-0.15003945411785624,-0.41872097708373635
-15.371000000000002,50.000009999999996,-2.4400000000000004,-0.3215846212138579,-0.06371620669816114,-0.16422435599133256
-11.371,50.000009999999996,-2.4400000000000004,-0.14392743177965017,-0.2716052404230118,-0.33511546419207616
-7.3709999999999996,50.000009999999996,-2.4400000000000004,-0.14553557484578705,-0.19770832071964728,-0.5025051583636142
-3.3710000000000004,50.000009999999996,-2.4400000000000004,-0.12297445902979126,-0.21716293581396373,-0.29124985321256625
0.6289999999999997,50.000009999999996,-2.4400000000000004,-0.12583945500532212,-0.17583765101724103,-0.3340719535633918
0.6289999999999997,50.000009999999996,-2.4400000000000004,-0.12527483142130147,-0.16306161886922022,-0.3159044624801599
4.629,50.000009999999996,-2.4400000000000004,-0.19652892691192947,-0.22078134230447688,-0.2832228420955929
8.629000000000001,50.000009999999996,-2.4400000000000004,-0.23089314164488478,0.04875755736643006,-0.009280282198470546
12.629000000000001,50.000009999999996,-2.4400000000000004,-0.0842834106148424,-0.5849143754013242,-0.37189860143776454
12.629000000000001,50.000009999999996,-6.4399999999999995,-0.006905440688446951,-0.420901816131769,-0.417703413242676
8.629000000000001,50.000009999999996,-6.4399999999999995,-0.32663478047652156,-0.03624934371914135,-0.946624808408969
4.629,50.000009999999996,-6.4399999999999995,-0.43875305603744175,-0.15732638603999094,-0.712277855126775
0.6289999999999997,50.000009999999996,-6.4399999999999995,-0.32841657747197384,-0.277809973646137,-0.543287723814645
-3.3710000000000004,50.000009999999996,-6.4399999999999995,-0.1857061345153302,-0.20325875774593882,-0.3924024692101513
-7.3709999999999996,50.000009999999996,-6.4399999999999995,-0.1841595702407245,-0.27917562386580164,-0.4121692983116487
-11.371,50.000009999999996,-6.4399999999999995,-0.4246799372511545,-0.014295316503520894,-0.34360174724985537
-15.371000000000002,50.000009999999996,-6.4399999999999995,0.026883589967849342,-0.2641874270619238,-0.4132367606676013
-19.371,50.000009999999996,-6.4399999999999995,-0.0717583073586131,0.07051806897268031,0.050183375234325034
-23.371000000000002,50.000009999999996,-6.4399999999999995,-0.13415147084376855,-0.12465631167033475,-0.268613681980745
-27.371000000000002,50.000009999999996,-6.4399999999999995,-0.46689305690751914,0.04561009815077233,0.4472349545575405
-27.371000000000002,50.000009999999996,-10.440000000000001,-0.12951211233506732,-0.008299265882627527,0.060434089108429845
-23.371000000000002,50.000009999999996,-10.440000000000001,-0.16617448822677794,-0.09658440331146156,0.05099653751405864
-15.371000000000002,50.000009999999996,-10.440000000000001,-0.09856230564589119,-0.24362746812643943,-0.10257766358454656
-11.371,50.000009999999996,-10.440000000000001,-0.32911359208727675,-0.12378776727958174,-0.14080246323100454
-7.3709999999999996,50.000009999999996,-10.440000000000001,-0.3330975471932257,-0.21527336025831678,-0.24002223142447487
-3.3710000000000004,50.000009999999996,-10.440000000000001,-0.24010369472488163,-0.34335348807706945,-0.15262221624352534
0.6289999999999997,50.000009999999996,-10.440000000000001,-0.17783654727303033,-0.22942438234808682,-0.26178794332412103
4.629,50.000009999999996,-10.440000000000001,-0.12478836280942242,-0.1137990860989535,-0.5570740745437508
8.629000000000001,50.000009999999996,-10.440000000000001,-0.03069339000008192,-0.10302321042099383,-0.39378848896898244
4.629,50.000009999999996,-14.440000000000003,-0.05763688751005726,-0.33316241683031267,-0.06088399798859778
0.6289999999999997,50.000009999999996,-14.440000000000003,0.12134807852553497,-0.237887414117266,-0.07994552000444854
-3.3710000000000004,50.000009999999996,-14.440000000000003,-0.1008332715302665,-0.21414033305776625,0.022810209426721295
-7.3709999999999996,50.000009999999996,-14.440000000000003,0.00448457905099231,-0.10938050876003746,0.052803409079632546
-11.371,50.000009999999996,-14.440000000000003,-0.010991755559036642,-0.15593359827227316,0.09286064104150893
-15.371000000000002,50.000009999999996,-14.440000000000003,0.09196749415378569,-0.18859029273295969,0.23554710656264466
-19.371,50.000009999999996,-14.440000000000003,0.25979872916517543,-0.14780977035850906,0.07867833379185396
-23.371000000000002,50.000009999999996,-14.440000000000003,-0.09613361879576843,-0.10756550632642359,-0.009829232803720833
-27.371000000000002,50.000009999999996,-14.440000000000003,-0.01150309344643552,-0.17903255981698285,-0.09184776018117957
-27.371000000000002,50.000009999999996,-18.44,-0.05907795859387277,-0.23808216948757455,-0.02632433276060775
-23.371000000000002,50.000009999999996,-18.44,-0.1386533929751188,0.026184997330802595,-0.034412706626041345
-19.371,50.000009999999996,-18.44,-0.020196220282994726,-0.060765688803743334,0.0451409401631131
-15.371000000000002,50.000009999999996,-18.44,-0.09707754503698596,-0.16393186275308613,0.07317511724534986
-11.371,50.000009999999996,-18.44,-0.1671515547665925,-0.10122903028010333,0.13031129687549603
-7.3709999999999996,50.000009999999996,-18.44,-0.16235447385991308,-0.13040356032307798,0.1987442292803121
-3.3710000000000004,50.000009999999996,-18.44,-0.043258866480457014,-0.05931476062026597,0.09059223551207696
0.6289999999999997,50.000009999999996,-18.44,-0.08559312029678412,-0.10139366406988204,0.16295450800097866
4.629,50.000009999999996,-18.44,-0.04708731356994657,-0.1679444726396362,0.16119331622209687
8.629000000000001,50.000009999999996,-18.44,-0.10519904787653772,0.0413707740021807,0.039476403405636074
-3.3710000000000004,50.000009999999996,5.56,0.04714333524583475,-0.010248469664664306,0.11136702402470972
-7.3709999999999996,50.000009999999996,5.56,-0.05772495350432061,-0.05607296951356533,0.05643989808564592
-11.371,50.000009999999996,5.56,-0.017601317995513677,-0.013589300093608259,0.19342017641966608
-15.371000000000002,50.000009999999996,5.56,-0.11114685560072168,-0.15323041728340092,0.19980656905532607
-19.371,50.000009999999996,5.56,-0.1638984160413387,-0.06430806176853654,0.4934607188037274
-23.371000000000002,50.000009999999996,5.56,-0.12700794340902988,-0.06558266357364895,0.2693691224957426
-27.371000000000002,50.000009999999996,5.56,-0.14316007841470024,-0.23575733432581458,-0.07973392177102051
-27.371000000000002,50.000009999999996,9.559999999999999,-0.009631275807236994,-0.20335516305125534,-0.123476725225629
-23.371000000000002,50.000009999999996,9.559999999999999,-0.08815427533965803,-0.22888427655680665,0.04491828889846075
-19.371,50.000009999999996,9.559999999999999,-0.0890432485072673,-0.1748400439050335,0.1305189473938935
-15.371000000000002,50.000009999999996,9.559999999999999,-0.08321817727696967,-0.15071092203502445,-0.006033627457917995
-11.371,50.000009999999996,9.559999999999999,-0.02621518137307377,0.011972072789945276,0.04587815940831422
-7.3709999999999996,50.000009999999996,9.559999999999999,-0.052940124162645374,-0.0810002319136971,0.004192116413587882
-3.3710000000000004,50.000009999999996,9.559999999999999,0.031603311180448956,-0.1288563453088587,0.08582086197662167
0.6289999999999997,50.000009999999996,9.559999999999999,-0.045949876895229336,-0.08404157231899356,0.06915622890036402
4.629,50.000009999999996,9.559999999999999,-0.0747253143894986,-0.09369601659083848,0.07444049627881102
8.629000000000001,50.000009999999996,9.559999999999999,-0.1099402931016305,0.056735139285080116,0.18371660135088688
8.629000000000001,50.000009999999996,13.56,-0.05263745945776194,0.06808969965761413,0.1680452335222321
4.629,50.000009999999996,13.56,0.004003167036772601,-0.2797061004431889,-0.19322723616832238
0.6289999999999997,50.000009999999996,13.56,0.030752518022875153,-0.07205683641090532,-0.1682476898793278
-3.3710000000000004,50.000009999999996,13.56,-0.14915592197645294,-0.10548675354904447,-0.020311411866222318
-7.3709999999999996,50.000009999999996,13.56,-0.1686943244649436,-0.15270458294345257,-0.1409350097195422
-11.371,50.000009999999996,13.56,-0.09982392817647345,-0.12308898615259745,0.055752900555419704
-15.371000000000002,50.000009999999996,13.56,-0.11876465864584518,-0.18904955740458584,0.0862161220657659
-19.371,50.000009999999996,13.56,-0.10248837026849145,-0.18295063251233534,-0.0664268911581195
-23.371000000000002,50.000009999999996,13.56,-0.16400791240114287,-0.1172048129609693,0.0008626374997461328
-27.371000000000002,50.000009999999996,13.56,-0.23388745348204565,-0.07432041842564407,-0.14105674168813642
-27.371000000000002,50.000009999999996,17.56,-0.11378906160230406,-0.008294964260979754,0.03708591014568302
-23.371000000000002,50.000009999999996,17.56,-0.11962647075911548,-0.14411007177337343,-0.23532452681203214
-19.371,50.000009999999996,17.56,-0.15856380095357892,-0.1152361825401127,-0.34571413964106373
-15.371000000000002,50.000009999999996,17.56,0.12037354087008623,0.030936326040975626,-0.08187893940920926
-11.371,50.000009999999996,17.56,-0.15640779656296844,-0.09023901484395136,-0.26708755121447464
-7.3709999999999996,50.000009999999996,17.56,-0.16236868338995458,-0.1596925182667852,-0.29703577581292745
-3.3710000000000004,50.000009999999996,17.56,-0.170748319922355,-0.20321733358006355,-0.09874785897499155
0.6289999999999997,50.000009999999996,17.56,-0.22304794489388935,-0.21393668805532728,-0.021644959242241024
4.629,50.000009999999996,17.56,-0.153941233346375,-0.2204478933615306,-0.1628773244758866
8.629000000000001,50.000009999999996,17.56,-0.13449076068596938,-0.3207342975025784,-0.15115377757417697
8.629000000000001,50.000009999999996,21.560000000000002,-0.24486582401495177,-0.16245409427749768,0.1087696319249834
4.629,50.000009999999996,21.560000000000002,-0.29245912785380335,-0.1971988144023995,0.0631425402015176
0.6289999999999997,50.000009999999996,21.560000000000002,-0.19942839356940634,-0.07786738899339118,0.1102756936591967
-3.3710000000000004,50.000009999999996,21.560000000000002,-0.03588782364413318,-0.15780341351214755,0.13167642353914683
-7.3709999999999996,50.000009999999996,21.560000000000002,-0.11495992522211063,-0.035515177858891356,-0.02059955910778538
-11.371,50.000009999999996,21.560000000000002,0.10118165383218858,-0.014133831322993284,-0.13971389151166552
-15.371000000000002,50.000009999999996,21.560000000000002,0.25083889794505765,0.15399397214532762,-0.20529026438778492
-19.371,50.000009999999996,21.560000000000002,-0.18214674635838868,-0.24460612249882496,-0.20240398697266987
-23.371000000000002,50.000009999999996,21.560000000000002,0.07967256013450275,-0.12316201902172752,0.3218956380901486
-27.371000000000002,50.000009999999996,21.560000000000002,-0.1585336766495471,-0.2388884029267513,-0.06668694239362755
-27.371000000000002,50.000009999999996,25.56,-0.207549688639469,-0.22124293044117893,-0.09607392545790128
-23.371000000000002,50.000009999999996,25.56,-0.09786144165482291,0.0031743449912968735,-0.23318007419864117
-19.371,50.000009999999996,25.56,0.4391819563178273,0.2927465664861906,0.59667407443173
-15.371000000000002,50.000009999999996,25.56,-0.30692816139694934,-0.06033692069783436,-0.2998064613069895
-11.371,50.000009999999996,25.56,-0.3037123815669285,0.07890875924549956,-0.39010198129459384
-7.3709999999999996,50.000009999999996,25.56,-0.22646169733931687,0.14509523249155443,-0.22100472805762217
-3.3710000000000004,50.000009999999996,25.56,-0.1778483719082971,-0.02265924498164873,0.021995215413278535
0.6289999999999997,50.000009999999996,25.56,-0.23350093765672209,0.2075312815626673,0.20790050822478423
0.6289999999999997,50.000009999999996,29.56,-0.13484268815197598,-0.23981610153912536,0.1935827255937439
-3.3710000000000004,50.000009999999996,29.56,0.08863090101981358,-0.13112341143209916,0.09796915712499965
-7.3709999999999996,50.000009999999996,29.56,0.03290897003672966,0.07386708859021818,0.32339694836397426
-11.371,50.000009999999996,29.56,-0.04375358637776494,-0.08089688521497607,0.1503378654049814
4.629,55.000009999999996,1.5599999999999996,-0.02624581447572029,0.07549019053438855,0.007385826640718407
8.629000000000001,55.000009999999996,1.5599999999999996,0.008712838804901535,0.16698474933778407,0.07835117731704033
12.629000000000001,55.000009999999996,1.5599999999999996,0.07509991758440498,0.1255636497441981,-0.3697295997910771
0.6289999999999997,55.000009999999996,1.5599999999999996,-0.05400003102390971,0.23559954905553182,0.005181781448007627
-3.3710000000000004,55.000009999999996,1.5599999999999996,-0.04725210036423816,-0.04528844179988445,-0.2464314488845959
-7.3709999999999996,55.000009999999996,1.5599999999999996,0.02783802292015969,0.02262751650485839,-0.0027642603743854854
-11.371,55.000009999999996,1.5599999999999996,0.0441843272799447,0.04918137739222672,-0.0966883935318602
-15.371000000000002,55.000009999999996,1.5599999999999996,0.13120141484445902,-0.10776183496635783,-0.3476386233697809
-19.371,55.000009999999996,1.5599999999999996,0.22513156540205082,-0.21179501642177856,-0.29240457530715636
-23.371000000000002,55.000009999999996,1.5599999999999996,-0.017754212209730724,0.022189402119343615,0.26458694017740536
-27.371000000000002,55.000009999999996,1.5599999999999996,0.014076979945759627,0.15312516380762142,-0.2073402385848272
-27.371000000000002,55.000009999999996,-2.4400000000000004,-0.04222502277423934,0.12560580057667803,-0.06368631744456121
-23.371000000000002,55.000009999999996,-2.4400000000000004,-0.09039085462916319,0.16605110626872754,-0.141705087785865
-19.371,55.000009999999996,-2.4400000000000004,0.018645492619742687,0.03478532411810287,-0.026241795952480773
-15.371000000000002,55.000009999999996,-2.4400000000000004,0.013566528915284759,0.07856208234108264,-0.055110012768594396
-11.371,55.000009999999996,-2.4400000000000004,0.057222187309585726,0.09820166583179857,0.021192206358494614
-7.3709999999999996,55.000009999999996,-2.4400000000000004,0.06772592541767486,0.0017186726207429892,0.17047665751123708
-3.3710000000000004,55.000009999999996,-2.4400000000000004,0.01128151092285451,0.10319721345287691,0.015527308389690075
0.6289999999999997,55.000009999999996,-2.4400000000000004,0.013575108523228296,0.08841036684287262,0.18254812323423297
4.629,55.000009999999996,-2.4400000000000004,-0.0061703943887023854,0.060306592720482666,0.22630779198051232
8.629000000000001,55.000009999999996,-2.4400000000000004,0.07875904648695226,0.056734007034842104,0.2629554061997108
12.629000000000001,55.000009999999996,-2.4400000000000004,0.24098663403930437,0.20562200401587072,0.35060291809809185
12.629000000000001,55.000009999999996,-6.4399999999999995,0.2829734784228058,0.1253947502826036,0.15182490635945456
8.629000000000001,55.000009999999996,-6.4399999999999995,0.1318134936051804,0.16452310894223832,0.03529142306268884
4.629,55.000009999999996,-6.4399999999999995,-0.02043578626153876,0.1035754960620916,-0.08190276266424323
0.6289999999999997,55.000009999999996,-6.4399999999999995,0.009309417425013011,0.11281470214380418,0.09941901259167274
-3.3710000000000004,55.000009999999996,-6.4399999999999995,-0.009393381309065474,0.09843043110810967,-0.03456809625832502
-7.3709999999999996,55.000009999999996,-6.4399999999999995,-0.06563371921278482,0.04333439474630829,0.0786093399672394
-11.371,55.000009999999996,-6.4399999999999995,0.04083150558544246,0.058801701808974816,0.10465172121993938
-15.371000000000002,55.000009999999996,-6.4399999999999995,0.14287326985051585,0.008043073378127819,0.025327179355438822
-19.371,55.000009999999996,-6.4399999999999995,0.1034780159392873,0.1009766741417506,-0.1041020271401294
-23.371000000000002,55.000009999999996,-6.4399999999999995,0.02953503246683198,0.03291957072447671,-0.22256265335531822
-27.371000000000002,55.000009999999996,-6.4399999999999995,0.018660846688783872,-0.03612310364791149,-0.06190547436335514
-27.371000000000002,55.000009999999996,-10.440000000000001,0.004191590479291074,-0.03569326272877538,0.20274502683250706
-23.371000000000002,55.000009999999996,-10.440000000000001,0.04985188548225494,0.06433579778470921,-0.1431284344521222
-15.371000000000002,55.000009999999996,-10.440000000000001,-0.0015818271596607092,0.15342864462462025,-0.1390098183289057
-11.371,55.000009999999996,-10.440000000000001,-0.041938237313493554,-0.06439900411759902,0.0015641466342364296
-7.3709999999999996,55.000009999999996,-10.440000000000001,-0.01850704950464299,0.13396721722236382,0.05380894144002557
-3.3710000000000004,55.000009999999996,-10.440000000000001,-0.02453748640604131,-0.05358317186172634,0.022899032238044015
0.6289999999999997,55.000009999999996,-10.440000000000001,0.066509276126131,0.03776632058610785,0.10485483041686727
4.629,55.000009999999996,-10.440000000000001,0.06063443481217033,0.2040064392935692,0.24079688413605194
4.629,55.000009999999996,-14.440000000000003,0.044287869772288366,-0.11353986252826687,-0.018866827289992782
0.6289999999999997,55.000009999999996,-14.440000000000003,0.11324368191834577,-0.057925993081775484,0.05022348156083489
-3.3710000000000004,55.000009999999996,-14.440000000000003,-0.02631092599144763,0.04184248722208794,0.1883057576496372
-7.3709999999999996,55.000009999999996,-14.440000000000003,-0.028032943169717384,0.22137198778834355,0.2158835184042085
-11.371,55.000009999999996,-14.440000000000003,0.01597287011518289,0.0422870021364985,0.25911943600288034
-15.371000000000002,55.000009999999996,-14.440000000000003,-0.08691760158292816,0.07211087441775232,-0.016773789669904948
-19.371,55.000009999999996,-14.440000000000003,0.11961219977987547,-0.10091019174744975,0.05778818766735694
-23.371000000000002,55.000009999999996,-14.440000000000003,-0.003945828643470151,-0.0433381715161274,0.10239429263068645
-27.371000000000002,55.000009999999996,-14.440000000000003,0.013151007978079443,0.11195338987458614,-0.010106332769338477
-27.371000000000002,55.000009999999996,-18.44,0.04595438453814382,-0.04253377886905829,-0.12123573835899348
-23.371000000000002,55.000009999999996,-18.44,0.06781911257682793,0.059879401091855744,0.03582515032493072
-19.371,55.000009999999996,-18.44,0.03945645444414503,0.13134683917123136,0.06259717832785006
-15.371000000000002,55.000009999999996,-18.44,-0.09675754525649005,0.2087867757902928,0.018084249790628615
-11.371,55.000009999999996,-18.44,-0.052480617456135414,0.163317668234908,0.09360471802940529
-7.3709999999999996,55.000009999999996,-18.44,-0.16155036560246694,0.0931245337876252,0.20666250841242517
-3.3710000000000004,55.000009999999996,-18.44,0.01754873509439564,0.022236698932487364,0.23126418411060223
0.6289999999999997,55.000009999999996,-18.44,0.05295934310678985,-0.03345978036660702,0.0064679857663230145
4.629,55.000009999999996,-18.44,0.04864599283889402,0.006530719749819891,-0.01921470937583658
8.629000000000001,55.000009999999996,-18.44,-0.08834685441290319,0.1915445799664517,0.05890685651820382
12.629000000000001,55.000009999999996,-18.44,-0.11033623573529078,0.21730058744290348,0.06070572774258265
-3.3710000000000004,55.000009999999996,5.56,0.14753684944358442,0.22702261292992798,0.15469656188630138
0.6289999999999997,55.000009999999996,5.56,0.045477559537215884,0.16416016628794106,0.21772704864343323
4.629,55.000009999999996,5.56,-0.11047432291066729,0.21795923444212217,0.2917193308543328
8.629000000000001,55.000009999999996,5.56,-0.04056500737326246,-0.1344783747059375,0.32789764777548663
12.629000000000001,55.000009999999996,5.56,0.03485783435539097,0.027356035932857292,0.4505973712765829
16.628999999999998,55.000009999999996,5.56,0.08123530051499517,0.07691406262471112,0.3015335254090798
-7.3709999999999996,55.000009999999996,5.56,0.12704888606264453,-0.012036253450864454,0.04294378365346935
-11.371,55.000009999999996,5.56,0.18269474941847164,0.045134722432249585,0.2510410461487131
-15.371000000000002,55.000009999999996,5.56,0.054018158380306214,-0.1049316219275287,0.09071211854260047
-19.371,55.000009999999996,5.56,0.0904623487177264,-0.027161705989409146,0.2125523450212094
-23.371000000000002,55.000009999999996,5.56,0.06734712118463548,0.0720834232775025,0.09379312573544046
-27.371000000000002,55.000009999999996,5.56,0.07657929653515638,0.012081788462392495,0.08240136399005754
-27.371000000000002,55.000009999999996,9.559999999999999,0.1947256533610331,-0.18555020794093213,0.2353325623347731
-23.371000000000002,55.000009999999996,9.559999999999999,0.11564861736248488,0.07065787059126194,0.10175784487006026
-19.371,55.000009999999996,9.559999999999999,0.049227938096277346,-0.07002731418340735,0.12947346073813384
-15.371000000000002,55.000009999999996,9.559999999999999,0.05401840078076148,0.08839807444437353,0.31560492497733694
-11.371,55.000009999999996,9.559999999999999,0.024189471692087627,0.08097223877607806,-0.07835425570056828
-7.3709999999999996,55.000009999999996,9.559999999999999,0.031176974673022273,-0.15296989209605538,0.1306844351505694
-3.3710000000000004,55.000009999999996,9.559999999999999,0.02915339197072514,0.09196256887092913,0.14981279302266962
0.6289999999999997,55.000009999999996,9.559999999999999,0.04956513978331967,0.08702850423615294,-0.0010136608081738607
4.629,55.000009999999996,9.559999999999999,0.03263333487282492,0.261255526130888,-0.16195749977072002
8.629000000000001,55.000009999999996,9.559999999999999,-0.0726719633405773,0.20668000832346767,0.08856635605390475
0.6289999999999997,55.000009999999996,13.56,0.03189304667390869,0.0459778197422378,0.09079939649417057
-7.3709999999999996,55.000009999999996,13.56,-0.029285415783428248,0.02798213368346847,0.05464275745055425
-3.3710000000000004,55.000009999999996,13.56,-0.0854208458338182,0.1066764963137401,-0.15942958089220916
-11.371,55.000009999999996,13.56,-0.028913364414689946,0.08476404111206204,0.18323120176147178
-15.371000000000002,55.000009999999996,13.56,0.05417661959898623,0.016469655656026205,0.21032003191714665
-19.371,55.000009999999996,13.56,0.17482654817433663,-0.01848422378907255,0.1566697386302024
-23.371000000000002,55.000009999999996,13.56,0.012479447608626515,0.08344799848349904,0.14266920677492856
-27.371000000000002,55.000009999999996,13.56,0.1550774856151238,0.03174762863294989,0.4094214006098468
-27.371000000000002,55.000009999999996,17.56,0.3789106551214394,0.1303613854345742,0.5255853122909202
-23.371000000000002,55.000009999999996,17.56,0.02514960056902993,-0.06598033463136588,-0.08418235995297924
-19.371,55.000009999999996,17.56,0.045067189565853316,0.04183999821550932,-0.19165153356204417
-15.371000000000002,55.000009999999996,17.56,0.1009072508490999,0.04692705479001358,0.07302124711361241
-11.371,55.000009999999996,17.56,-0.06631535110468989,0.03535878089548916,-0.18167681754439752
-7.3709999999999996,55.000009999999996,17.56,-0.16710937171496576,-0.05405414815640164,-0.08141032891071515
-3.3710000000000004,55.000009999999996,17.56,-0.08104253428343894,0.03607840196345746,0.20719179631183277
0.6289999999999997,55.000009999999996,17.56,-0.1288847384611269,-0.09382652497110788,0.008216924087854627
4.629,55.000009999999996,17.56,-0.11937349835007029,0.17241210748016877,-0.06275426864874728
8.629000000000001,55.000009999999996,17.56,-0.04853388097088157,0.17822220047268855,0.022593615588493987
8.629000000000001,55.000009999999996,21.560000000000002,-0.15260356489597143,0.1297440074446654,0.18689923545664594
4.629,55.000009999999996,21.560000000000002,-0.11775766895542918,-0.15804892067460274,0.25727757923909716
0.6289999999999997,55.000009999999996,21.560000000000002,-0.17005623501368805,0.011031367291114424,0.47168605894740284
-3.3710000000000004,55.000009999999996,21.560000000000002,0.10994395536875062,-0.05573549290810442,0.20027401003619022
-7.3709999999999996,55.000009999999996,21.560000000000002,0.15140464532982512,-0.03462342927503803,-0.06173171666428584
-11.371,55.000009999999996,21.560000000000002,-0.181456199034985,0.01172022536214401,0.009219982985526898
-15.371000000000002,55.000009999999996,21.560000000000002,-0.0998811936142402,0.23950892707869098,-0.09790548691977347
-19.371,55.000009999999996,21.560000000000002,0.11676657907333798,0.05651678792043535,-0.029434631582429815
-23.371000000000002,55.000009999999996,21.560000000000002,0.11709056489666025,0.014088434316772425,-0.05668662569143085
-27.371000000000002,55.000009999999996,21.560000000000002,-0.06854506952782002,-0.049214880066916766,-0.029779357409691343
-27.371000000000002,55.000009999999996,25.56,-0.1349288529211845,0.029194059715542675,-0.0814244377605855
-23.371000000000002,55.000009999999996,25.56,0.03265667712017972,-0.058196378967012574,-0.10383143253061555
-19.371,55.000009999999996,25.56,-0.0043686224778100025,0.08851147733327513,-0.08162292034286645
-15.371000000000002,55.000009999999996,25.56,-0.0030944986733977276,0.0733409039094357,-0.17799667454082013
-11.371,55.000009999999996,25.56,0.009597405191280606,-0.057367717057810186,0.2677345865816194
-7.3709999999999996,55.000009999999996,25.56,0.045578085215583486,0.13955319196822247,0.23799480802763617
-3.3710000000000004,55.000009999999996,25.56,0.3761153041920248,0.2619198514328125,0.2438845961764302
0.6289999999999997,55.000009999999996,25.56,-0.032558484010197786,0.15644394891966007,0.5129609595120266
4.629,55.000009999999996,25.56,-0.06488307091762936,0.045108173991892375,-0.0386705659896569
8.629000000000001,55.000009999999996,25.56,0.4454954523088736,0.09333629486542039,-0.6325964965094466
0.6289999999999997,60.00001,1.5599999999999996,-0.048600813763605144,-0.04988414990244605,-0.05075468501501701
4.629,60.00001,1.5599999999999996,-0.15471573428735597,0.14762443700956362,-0.23727521762725023
8.629000000000001,60.00001,1.5599999999999996,0.1689424708888984,0.13387513566581744,0.11278778632732023
-3.3710000000000004,60.00001,1.5599999999999996,-0.04463005499265732,-0.09347643051647037,-0.09695639711940485
-7.3709999999999996,60.00001,1.5599999999999996,0.056838254480587325,-0.18043457935492668,0.1587337791448512
-11.371,60.00001,1.5599999999999996,0.000518461213422361,0.08411238382294295,0.033313741294907495
-15.371000000000002,60.00001,1.5599999999999996,-0.0046453458732137465,-0.06967588912565326,-0.012943457308875472
-19.371,60.00001,1.5599999999999996,-0.01901187575174823,0.12729894654566198,0.4673728930802895
-23.371000000000002,60.00001,1.5599999999999996,-0.01924928711831697,-0.08006121223951279,-0.04547706416098973
-27.371000000000002,60.00001,1.5599999999999996,-0.03900722622657837,0.01436097153213467,0.10276142119357845
-27.371000000000002,60.00001,-2.4400000000000004,-0.005485835527879734,-0.01934134056180703,0.3976604323525812
-23.371000000000002,60.00001,-2.4400000000000004,-0.08896320793105872,0.04690946982276456,0.07466968795705742
-19.371,60.00001,-2.4400000000000004,0.0069034434043074855,0.0776779667375771,0.20793865474970086
-15.371000000000002,60.00001,-2.4400000000000004,-0.0027124733583711036,0.12640301406438015,0.16251943560054438
-11.371,60.00001,-2.4400000000000004,0.04366652906159785,0.07176491782926453,0.12264107905137211
-7.3709999999999996,60.00001,-2.4400000000000004,0.032926515546174984,-0.13838403666625032,0.15483105738953173
-3.3710000000000004,60.00001,-2.4400000000000004,4.8260620731654935e-05,0.026909920697448797,0.08338198106338512
0.6289999999999997,60.00001,-2.4400000000000004,-0.0034070532762331407,-0.09158984010507742,0.16654397383330521
0.6289999999999997,60.00001,-6.4399999999999995,0.043861156292895886,-0.019025187250265585,0.11437708183785755
4.629,60.00001,-6.4399999999999995,0.15965398553603705,-0.1179106564240695,0.12099484043048836
4.629,60.00001,-2.4400000000000004,-0.06342854170215718,-0.014599232994172429,-0.14729189749241312
-3.3710000000000004,60.00001,-6.4399999999999995,0.015360734288615008,-0.11104253008762388,-0.05387447302702686
-7.3709999999999996,60.00001,-6.4399999999999995,-0.06311257110348245,0.024734873275378266,-0.02366367382358181
-11.371,60.00001,-6.4399999999999995,0.04634408994341199,-0.10751838678431103,-0.2423871475902617
-15.371000000000002,60.00001,-6.4399999999999995,-0.030502193399509214,-0.12710499775310247,-0.031393267400470215
-19.371,60.00001,-6.4399999999999995,0.10465853533432601,0.10689296594774689,-0.07370913315616345
-23.371000000000002,60.00001,-6.4399999999999995,0.07305166253024353,-0.027812932941817525,-0.0743545819843261
-27.371000000000002,60.00001,-6.4399999999999995,-0.0713726279085003,0.2788160826374564,0.1966385128802317
-27.371000000000002,60.00001,-10.440000000000001,0.10052989919744904,-0.07053048763923098,-0.03336892281884385
-23.371000000000002,60.00001,-10.440000000000001,0.020884195386194904,-0.004369687368888098,-0.16498577134689274
-15.371000000000002,60.00001,-10.440000000000001,-0.0507051767617589,0.10593364481111811,-0.18006696389740728
-11.371,60.00001,-10.440000000000001,-0.11917173758373978,-0.005825304970685785,-0.38712595766854374
-7.3709999999999996,60.00001,-10.440000000000001,-0.04968604343328076,0.07014515636809548,0.053243803499714026
-3.3710000000000004,60.00001,-10.440000000000001,-0.026407191568468547,0.12764807456018268,0.10847216470868393
0.6289999999999997,60.00001,-10.440000000000001,0.09886816387270625,-0.04130666641201097,0.14933710107392084
4.629,60.00001,-10.440000000000001,0.16447920014506479,-0.2284838445029913,0.0357064929059403
4.629,60.00001,-14.440000000000003,0.1741343981128709,-0.2785033057425834,-0.18022695820045231
0.6289999999999997,60.00001,-14.440000000000003,0.11774996045959552,-0.06599099891982929,-0.14796510646739036
-3.3710000000000004,60.00001,-14.440000000000003,-0.061621128307289,0.03779235828663685,-0.1674431959804934
-7.3709999999999996,60.00001,-14.440000000000003,-0.06951724400946213,-0.0871471149898051,-0.07198491518873307
-11.371,60.00001,-14.440000000000003,0.03499588556303279,-0.09878597065899886,0.12384363888429673
-15.371000000000002,60.00001,-14.440000000000003,0.1005313291461335,-0.08098675077121698,0.044929070965721296
-19.371,60.00001,-14.440000000000003,0.06688635206382465,0.1695054520855055,-0.13899209660201417
-23.371000000000002,60.00001,-14.440000000000003,0.021646127110397373,-0.14569427774241417,-0.18698706531911635
-27.371000000000002,60.00001,-14.440000000000003,-0.11106095503121138,-0.05003879401613842,0.21957664736785287
-27.371000000000002,60.00001,-18.44,0.2959000470660611,-0.2858782046557429,-0.06111178421551733
-23.371000000000002,60.00001,-18.44,0.12235137586174005,-0.266275692553386,0.03972229667533744
-19.371,60.00001,-18.44,0.14547540583365326,-0.2706462015334088,0.10264542683747768
-15.371000000000002,60.00001,-18.44,-0.02839206491298818,-0.03870072167996286,0.024966167234563574
-11.371,60.00001,-18.44,-0.23573758092823582,0.026356835685681368,0.04601266869256326
-7.3709999999999996,60.00001,-18.44,-0.12501773861438303,-0.055216200380803215,0.02433027876765914
-3.3710000000000004,60.00001,-18.44,0.08037677228899115,0.1908674012477074,-0.0822350267460803
-3.3710000000000004,60.00001,-18.44,0.03011816428698383,0.16813170791880605,-0.05386553679563866
0.6289999999999997,60.00001,-18.44,0.04972902974003657,0.05166447198035051,-0.18553025923763178
4.629,60.00001,-18.44,0.36013832329897766,-0.0866107669918681,-0.10482781086661452
8.629000000000001,60.00001,-18.44,0.1160300119721333,0.013279131563792568,-0.05211452506147518
12.629000000000001,60.00001,-18.44,0.04505459660621575,-0.24604100649273652,0.05392716976774237
4.629,60.00001,5.56,-0.1489656740935017,0.074704346626564,0.13042642658321751
8.629000000000001,60.00001,5.56,-0.11387578137809357,0.003059578181319189,0.2709526258050418
12.629000000000001,60.00001,5.56,-0.16060790376342532,-0.1288174825727073,-0.07713023853223172
16.628999999999998,60.00001,5.56,-0.16977910475602653,-0.05879169401763473,-0.04366120247051436
0.6289999999999997,60.00001,5.56,-0.056170649694758934,-0.0019354498912105278,0.13275472922354842
-3.3710000000000004,60.00001,5.56,-0.013473897762329712,-0.14789313986337538,0.20878808331629
-7.3709999999999996,60.00001,5.56,0.014546692870789912,0.05503629265886101,0.057542501874206786
-11.371,60.00001,5.56,0.12967776649741025,-0.06707503899651135,0.027361367485854993
-15.371000000000002,60.00001,5.56,-0.024622852527314554,0.07112045784656296,0.07063674135344561
-19.371,60.00001,5.56,-0.0018304097621574256,-0.0013856304734050084,0.001127499225948847
-23.371000000000002,60.00001,5.56,0.08904509715552678,-0.2706071850422265,-0.01559978728113004
-27.371000000000002,60.00001,5.56,0.019642768876965144,-0.099530947116655,-0.3390357482111375
-27.371000000000002,60.00001,9.559999999999999,-0.0806379289944148,-0.07054765564875609,-0.11115954398159197
-23.371000000000002,60.00001,9.559999999999999,0.08499943217161743,0.28926711629617685,0.30428886102545416
-19.371,60.00001,9.559999999999999,-0.12371943175217559,0.06404723888278063,0.1468411723223602
-15.371000000000002,60.00001,9.559999999999999,-0.008750094284162846,0.02305842136034464,0.3274950836259789
-11.371,60.00001,9.559999999999999,0.1176596384309947,0.1673282991127567,0.17617069537841437
-7.3709999999999996,60.00001,9.559999999999999,-0.11438738585010932,-0.03659017605226467,-0.05529309558606685
-3.3710000000000004,60.00001,9.559999999999999,0.054868900930658826,-0.030749013982833695,-0.18937418876973575
-7.3709999999999996,60.00001,13.56,-0.05030399088240267,-0.17830807829865014,0.02284802099019878
-3.3710000000000004,60.00001,13.56,-0.16404037820906409,-0.08806029563396267,-0.071279155990564
0.6289999999999997,60.00001,13.56,0.7293629739560548,0.24117973603786647,0.2797172702302869
4.629,60.00001,13.56,0.26234005018224393,0.2113294580954439,-0.5542965407591333
-27.371000000000002,60.00001,13.56,-0.06158327452680523,-0.112211678350016,-0.11484685575919584
-23.371000000000002,60.00001,13.56,0.33093402412456285,-0.37790303035906136,-0.16077014734960648
-19.371,60.00001,13.56,-0.06312010407940327,0.05393969223442818,-0.2601945056965399
-15.371000000000002,60.00001,13.56,-0.17059284321856716,0.12085453332496554,-0.06176620228996732
-11.371,60.00001,13.56,-0.14300234094860031,0.05944688754823124,-0.200603963630816
-7.3709999999999996,60.00001,13.56,-0.06617974608103816,0.15952523281114184,0.05742526363330669
-27.371000000000002,60.00001,17.56,-0.1739300748886785,0.012280914734896786,-0.45501997578090286
-23.371000000000002,60.00001,17.56,-0.16135897886160322,0.3192164558244226,-0.19563342219357654
-19.371,60.00001,17.56,-0.09594772454865896,0.2179208751544981,-0.1817741135383702
-15.371000000000002,60.00001,17.56,0.12635503931406056,0.17416524395171828,0.2194774198112967
-11.371,60.00001,17.56,-0.006478201316811871,0.0002914993137204114,-0.2144154757501418
-7.3709999999999996,60.00001,17.56,-0.14610180208701473,-0.08293631623611519,-0.34732569470401625
-3.3710000000000004,60.00001,17.56,0.14897319831409378,0.09497814876552324,-0.10112642340396466
0.6289999999999997,60.00001,17.56,0.18823486701647352,0.25617903974674006,-0.2223644411091033
0.6289999999999997,60.00001,17.56,0.21344216076595868,0.14564970862277482,-0.20397435526447044
4.629,60.00001,17.56,-0.1636877963222736,-0.1790819742283234,-0.42432869321360617
4.629,60.00001,21.560000000000002,-0.16903795785545328,-0.06941443523743596,-0.020562099724101557
0.6289999999999997,60.00001,21.560000000000002,-0.09958403474962796,-0.011708723332348736,0.09560949074245012
-3.3710000000000004,60.00001,21.560000000000002,0.18237677149864767,-0.2783319507868476,0.17167693006582968
-7.3709999999999996,60.00001,21.560000000000002,-0.046967188177501895,-0.3442042386984423,0.02620942259578679
-11.371,60.00001,21.560000000000002,-0.2376345304038685,-0.11141347963651294,0.11936431151493149
-15.371000000000002,60.00001,21.560000000000002,-0.1468537280390897,0.10732036936779155,-0.0008807292734266947
-19.371,60.00001,21.560000000000002,-0.08055554726764391,0.07187775470042235,0.030772822924647614
-23.371000000000002,60.00001,21.560000000000002,-0.07064400204184196,0.1817731025947289,-0.09054837961653267
-27.371000000000002,60.00001,21.560000000000002,-0.1580621689612316,0.13189965561802852,0.02269942347501025
-27.371000000000002,60.00001,25.56,0.33101999973564333,0.2014995944817355,0.29274332000314707
-23.371000000000002,60.00001,25.56,-0.06516859862051305,-0.18239250094577164,-0.3861011489117827
-19.371,60.00001,25.56,0.0037599669870075347,-0.12913322315427633,-0.20074065232230098
-15.371000000000002,60.00001,25.56,-0.11292465639565485,-0.0579995002641609,0.12299565471577956
-11.371,60.00001,25.56,0.09290517822337363,-0.11045083336213013,0.48818616980929597
